time,seconds_elapsed,z,y,x
1665946343043519000,0.01151904296875,-0.853607177734375,-0.6208953857421875,-0.018035888671875
1665946343053600000,0.02160009765625,-0.8939666748046875,-0.5311431884765625,-0.0212860107421875
1665946343063682000,0.03168212890625,-0.910888671875,-0.4686737060546875,-0.024505615234375
1665946343073764000,0.04176416015625,-0.8717041015625,-0.4486541748046875,-0.03436279296875
1665946343083846100,0.05184619140625,-0.859619140625,-0.464202880859375,-0.0223541259765625
1665946343093928200,0.06192822265625,-0.779998779296875,-0.468017578125,0.0016632080078125
1665946343104009200,0.07200927734375,-0.7642669677734375,-0.50482177734375,-0.001953125
1665946343114091300,0.08209130859375,-0.7816925048828125,-0.55999755859375,0.0096282958984375
1665946343124173000,0.092173095703125,-0.817474365234375,-0.5844268798828125,0.0084075927734375
1665946343134255000,0.102255126953125,-0.8249969482421875,-0.583892822265625,-0.0329437255859375
1665946343144337200,0.112337158203125,-0.80157470703125,-0.565582275390625,-0.0531158447265625
1665946343154418000,0.12241796875,-0.8095245361328125,-0.5574493408203125,-0.028106689453125
1665946343164500000,0.1325,-0.8515777587890625,-0.5579681396484375,0.0044403076171875
1665946343174582000,0.14258203125,-0.9226226806640625,-0.5428466796875,0.0372467041015625
1665946343184664000,0.1526640625,-0.9394989013671875,-0.5029296875,0.067230224609375
1665946343194746000,0.16274609375,-0.944915771484375,-0.4250030517578125,0.1233673095703125
1665946343204827100,0.1728271484375,-0.928070068359375,-0.4115447998046875,0.0918121337890625
1665946343214909200,0.1829091796875,-0.927764892578125,-0.428192138671875,0.0299072265625
1665946343224991000,0.192990966796875,-0.974395751953125,-0.420318603515625,-0.0126953125
1665946343235073000,0.203072998046875,-0.976409912109375,-0.4140625,-0.0262298583984375
1665946343245155000,0.213155029296875,-0.9387664794921875,-0.4213714599609375,-0.0492095947265625
1665946343255236000,0.223236083984375,-0.8876800537109375,-0.4365081787109375,-0.0432586669921875
1665946343265318100,0.233318115234375,-0.86663818359375,-0.4566192626953125,-0.0249786376953125
1665946343275400200,0.243400146484375,-0.844970703125,-0.4923095703125,-0.003387451171875
1665946343285482200,0.253482177734375,-0.8306884765625,-0.5188446044921875,-0.0107421875
1665946343295564300,0.263564208984375,-0.8233642578125,-0.5139923095703125,-0.03179931640625
1665946343305645000,0.27364501953125,-0.8278045654296875,-0.5059814453125,-0.04217529296875
1665946343315727000,0.28372705078125,-0.8318328857421875,-0.5157318115234375,-0.05560302734375
1665946343325809000,0.293808837890625,-0.83465576171875,-0.5147705078125,-0.068115234375
1665946343335891000,0.303890869140625,-0.8556976318359375,-0.4959716796875,-0.0425262451171875
1665946343345973000,0.313972900390625,-0.8440399169921875,-0.5056304931640625,0.0184173583984375
1665946343356054000,0.324053955078125,-0.7816619873046875,-0.5423431396484375,0.0530853271484375
1665946343366136000,0.334135986328125,-0.7095184326171875,-0.5993499755859375,0.0281524658203125
1665946343376217600,0.344217529296875,-0.673553466796875,-0.620574951171875,0.1341400146484375
1665946343386299600,0.354299560546875,-0.70166015625,-0.622894287109375,0.2074127197265625
1665946343396381700,0.364381591796875,-0.73699951171875,-0.5645751953125,0.172637939453125
1665946343406462500,0.37446240234375,-0.8073883056640625,-0.477691650390625,0.03729248046875
1665946343416544500,0.38454443359375,-0.894866943359375,-0.437652587890625,-0.0173797607421875
1665946343426626600,0.39462646484375,-0.973876953125,-0.4250640869140625,-0.0603179931640625
1665946343436708400,0.404708251953125,-0.9823150634765625,-0.4014129638671875,-0.1142425537109375
1665946343446790400,0.414790283203125,-0.9374847412109375,-0.4537506103515625,-0.0840606689453125
1665946343456871400,0.424871337890625,-0.9277801513671875,-0.499176025390625,-0.1351776123046875
1665946343466953500,0.434953369140625,-0.9443359375,-0.4901275634765625,-0.1678619384765625
1665946343477035500,0.445035400390625,-0.9670257568359375,-0.4856414794921875,-0.2023773193359375
1665946343487117600,0.45511767578125,-0.9598846435546875,-0.4479217529296875,-0.2217254638671875
1665946343497199600,0.46519970703125,-0.9083099365234375,-0.4190216064453125,-0.1834564208984375
1665946343507281700,0.47528173828125,-0.7959747314453125,-0.4569091796875,-0.1758270263671875
1665946343517362700,0.48536279296875,-0.7397003173828125,-0.4838409423828125,-0.1721954345703125
1665946343527444500,0.495444580078125,-0.7234954833984375,-0.48455810546875,-0.147613525390625
1665946343537526500,0.505526611328125,-0.6853179931640625,-0.4440460205078125,-0.138946533203125
1665946343547608600,0.515608642578125,-0.66162109375,-0.4145050048828125,-0.180999755859375
1665946343557690600,0.525690673828125,-0.655242919921875,-0.40936279296875,-0.2157745361328125
1665946343567771400,0.535771484375,-0.67401123046875,-0.4205780029296875,-0.2540740966796875
1665946343577853400,0.545853515625,-0.718505859375,-0.4620208740234375,-0.28912353515625
1665946343587935500,0.555935546875,-0.749114990234375,-0.484161376953125,-0.282562255859375
1665946343598017500,0.566017578125,-0.74365234375,-0.454803466796875,-0.272064208984375
1665946343608099600,0.576099609375,-0.7168731689453125,-0.392425537109375,-0.221588134765625
1665946343618180600,0.5861806640625,-0.7021942138671875,-0.29437255859375,-0.1392364501953125
1665946343628262400,0.596262451171875,-0.69708251953125,-0.306488037109375,-0.1766357421875
1665946343638344400,0.606344482421875,-0.7442474365234375,-0.50396728515625,-0.3084564208984375
1665946343648426500,0.616426513671875,-0.828399658203125,-0.7003326416015625,-0.247528076171875
1665946343658508500,0.626508544921875,-0.8262939453125,-0.6867828369140625,-0.196044921875
1665946343668589600,0.636589599609375,-0.79443359375,-0.5757293701171875,-0.18951416015625
1665946343678671600,0.646671630859375,-0.813812255859375,-0.4862823486328125,-0.1904449462890625
1665946343688753700,0.656753662109375,-0.820068359375,-0.415557861328125,-0.2018585205078125
1665946343698835700,0.666835693359375,-0.8110809326171875,-0.381805419921875,-0.168731689453125
1665946343708917500,0.67691748046875,-0.8523101806640625,-0.3555450439453125,-0.158447265625
1665946343718998500,0.68699853515625,-0.9019927978515625,-0.366668701171875,-0.1585235595703125
1665946343729080300,0.697080322265625,-0.943023681640625,-0.4358367919921875,-0.1295013427734375
1665946343739162400,0.707162353515625,-1.000274658203125,-0.5069732666015625,-0.0967559814453125
1665946343749244400,0.717244384765625,-1.052581787109375,-0.5331878662109375,-0.069793701171875
1665946343759326500,0.727326416015625,-1.0523681640625,-0.66473388671875,0.0239715576171875
1665946343769407500,0.737407470703125,-1.0167083740234375,-0.5390472412109375,-0.02777099609375
1665946343779489500,0.747489501953125,-1.0196685791015625,-0.3390960693359375,-0.12371826171875
1665946343789571600,0.757571533203125,-1.0649566650390625,-0.3448333740234375,-0.15185546875
1665946343799653600,0.767653564453125,-1.078826904296875,-0.41278076171875,-0.1324462890625
1665946343809735400,0.7777353515625,-1.0760650634765625,-0.4435882568359375,-0.0999908447265625
1665946343819816700,0.787816650390625,-1.0768585205078125,-0.4561614990234375,-0.0856475830078125
1665946343829898500,0.7978984375,-1.075653076171875,-0.4293212890625,-0.1031646728515625
1665946343839980500,0.80798046875,-1.0792388916015625,-0.38238525390625,-0.1125946044921875
1665946343850062600,0.8180625,-1.0904541015625,-0.36199951171875,-0.1101226806640625
1665946343860144600,0.82814453125,-1.0834503173828125,-0.363433837890625,-0.10528564453125
1665946343870225400,0.838225341796875,-1.0615081787109375,-0.4106903076171875,-0.0767822265625
1665946343880307500,0.848307373046875,-1.03057861328125,-0.4568023681640625,-0.0605621337890625
1665946343890389500,0.858389404296875,-0.9904022216796875,-0.4402618408203125,-0.084564208984375
1665946343900471600,0.868471435546875,-0.9605712890625,-0.4252166748046875,-0.1002349853515625
1665946343910553300,0.87855322265625,-0.9437103271484375,-0.4095306396484375,-0.1008758544921875
1665946343920635400,0.888635498046875,-0.938323974609375,-0.388458251953125,-0.1205596923828125
1665946343930716400,0.89871630859375,-0.93682861328125,-0.3915252685546875,-0.1312103271484375
1665946343940798500,0.908798583984375,-0.9317474365234375,-0.39617919921875,-0.14013671875
1665946343950880500,0.918880615234375,-0.9010772705078125,-0.3924560546875,-0.1442718505859375
1665946343960962600,0.928962646484375,-0.8666229248046875,-0.386932373046875,-0.1451873779296875
1665946343971044600,0.939044677734375,-0.8543701171875,-0.392333984375,-0.15032958984375
1665946343981125600,0.949125732421875,-0.853607177734375,-0.407257080078125,-0.1699371337890625
1665946343991207700,0.959207763671875,-0.856414794921875,-0.404510498046875,-0.1815948486328125
1665946344001289700,0.969289794921875,-0.8634796142578125,-0.3936309814453125,-0.190093994140625
1665946344011371500,0.97937158203125,-0.8887481689453125,-0.375244140625,-0.2140350341796875
1665946344021453600,0.98945361328125,-0.91375732421875,-0.35809326171875,-0.221099853515625
1665946344031534300,0.999534423828125,-0.91229248046875,-0.366943359375,-0.219818115234375
1665946344041616400,1.009616455078125,-0.88067626953125,-0.3823394775390625,-0.2162628173828125
1665946344051698400,1.019698486328125,-0.860870361328125,-0.38275146484375,-0.2122802734375
1665946344061780500,1.029780517578125,-0.8565673828125,-0.3782196044921875,-0.217437744140625
1665946344071862500,1.039862548828125,-0.8612213134765625,-0.3770904541015625,-0.23309326171875
1665946344081943600,1.049943603515625,-0.87908935546875,-0.3737335205078125,-0.2612152099609375
1665946344092025600,1.060025634765625,-0.8774261474609375,-0.3878936767578125,-0.2716827392578125
1665946344102107600,1.070107666015625,-0.8806304931640625,-0.4106597900390625,-0.27630615234375
1665946344112189400,1.080189453125,-0.8900604248046875,-0.4082489013671875,-0.277191162109375
1665946344122271500,1.090271484375,-0.8883819580078125,-0.380889892578125,-0.2758331298828125
1665946344132352500,1.1003525390625,-0.8968658447265625,-0.377593994140625,-0.2598419189453125
1665946344142434600,1.1104345703125,-0.917877197265625,-0.387481689453125,-0.2483673095703125
1665946344152516600,1.1205166015625,-0.92230224609375,-0.3731689453125,-0.2474365234375
1665946344162598700,1.1305986328125,-0.9091949462890625,-0.36358642578125,-0.2474822998046875
1665946344172680700,1.1406806640625,-0.899627685546875,-0.391845703125,-0.24224853515625
1665946344182762500,1.150762451171875,-0.8753509521484375,-0.41326904296875,-0.245849609375
1665946344192843500,1.160843505859375,-0.853271484375,-0.419921875,-0.2545623779296875
1665946344202925600,1.170925537109375,-0.8421783447265625,-0.416290283203125,-0.2631683349609375
1665946344213007400,1.18100732421875,-0.8426055908203125,-0.4097137451171875,-0.2670440673828125
1665946344223089400,1.19108935546875,-0.85980224609375,-0.403411865234375,-0.2635040283203125
1665946344233170400,1.20117041015625,-0.8862762451171875,-0.40399169921875,-0.2494659423828125
1665946344243252500,1.21125244140625,-0.92388916015625,-0.402801513671875,-0.2429046630859375
1665946344253334500,1.22133447265625,-0.963348388671875,-0.39019775390625,-0.257568359375
1665946344263416600,1.23141650390625,-0.97796630859375,-0.3862457275390625,-0.261505126953125
1665946344273498600,1.24149853515625,-0.9594268798828125,-0.39080810546875,-0.2471160888671875
1665946344283580400,1.251580322265625,-0.921661376953125,-0.3960113525390625,-0.2409210205078125
1665946344293661700,1.26166162109375,-0.89105224609375,-0.40802001953125,-0.25274658203125
1665946344303743500,1.271743408203125,-0.8548126220703125,-0.410888671875,-0.264678955078125
1665946344313825500,1.281825439453125,-0.86932373046875,-0.400421142578125,-0.308929443359375
1665946344323907600,1.291907470703125,-0.8996124267578125,-0.429473876953125,-0.3244171142578125
1665946344333989600,1.30198974609375,-0.8941497802734375,-0.4321136474609375,-0.297637939453125
1665946344344070400,1.3120703125,-0.8685302734375,-0.3898773193359375,-0.2629241943359375
1665946344354152400,1.32215234375,-0.877471923828125,-0.4095916748046875,-0.246612548828125
1665946344364234500,1.332234375,-0.8618621826171875,-0.441650390625,-0.26910400390625
1665946344374317600,1.342317626953125,-0.8289337158203125,-0.439361572265625,-0.3013458251953125
1665946344384399600,1.352399658203125,-0.82806396484375,-0.446044921875,-0.3358154296875
1665946344394480600,1.362480712890625,-0.8266754150390625,-0.462127685546875,-0.33953857421875
1665946344404562700,1.372562744140625,-0.819244384765625,-0.4677276611328125,-0.32623291015625
1665946344414644700,1.382644775390625,-0.8411865234375,-0.453216552734375,-0.3232269287109375
1665946344424726800,1.392726806640625,-0.872528076171875,-0.435638427734375,-0.3124237060546875
1665946344434808600,1.40280859375,-0.869873046875,-0.4374847412109375,-0.282684326171875
1665946344444889600,1.4128896484375,-0.8500213623046875,-0.424713134765625,-0.294158935546875
1665946344454971600,1.4229716796875,-0.8146820068359375,-0.410247802734375,-0.305694580078125
1665946344465053400,1.433053466796875,-0.788543701171875,-0.3806304931640625,-0.3056182861328125
1665946344475135500,1.443135498046875,-0.788604736328125,-0.378875732421875,-0.2996368408203125
1665946344485217500,1.453217529296875,-0.83929443359375,-0.3922882080078125,-0.3365936279296875
1665946344495298600,1.463298583984375,-0.867950439453125,-0.4177703857421875,-0.3713836669921875
1665946344505380600,1.473380615234375,-0.8715667724609375,-0.434051513671875,-0.3793182373046875
1665946344515462700,1.483462646484375,-0.879852294921875,-0.4298858642578125,-0.3660888671875
1665946344525544700,1.493544677734375,-0.89398193359375,-0.4120330810546875,-0.3321990966796875
1665946344535626800,1.503626708984375,-0.915252685546875,-0.4184112548828125,-0.31591796875
1665946344545708500,1.51370849609375,-0.941070556640625,-0.4279327392578125,-0.3035430908203125
1665946344555789800,1.523789794921875,-0.9459228515625,-0.4237823486328125,-0.289337158203125
1665946344565871600,1.53387158203125,-0.9470672607421875,-0.4277191162109375,-0.31134033203125
1665946344575953700,1.54395361328125,-0.9532928466796875,-0.4547576904296875,-0.30242919921875
1665946344586035500,1.554035400390625,-0.9215545654296875,-0.5167083740234375,-0.276153564453125
1665946344596117500,1.564117431640625,-0.8608551025390625,-0.5741424560546875,-0.23333740234375
1665946344606198500,1.574198486328125,-0.852569580078125,-0.5817413330078125,-0.2454681396484375
1665946344616280600,1.584280517578125,-0.8352508544921875,-0.541900634765625,-0.256927490234375
1665946344626362600,1.594362548828125,-0.7456817626953125,-0.4012451171875,-0.2923583984375
1665946344636444700,1.604444580078125,-0.74566650390625,-0.27020263671875,-0.3651123046875
1665946344646526500,1.6145263671875,-0.83990478515625,-0.2280426025390625,-0.3931884765625
1665946344656607700,1.624607666015625,-0.9121246337890625,-0.17041015625,-0.417999267578125
1665946344666689500,1.634689453125,-0.8544158935546875,-0.1304931640625,-0.4305877685546875
1665946344676771600,1.644771484375,-0.8320770263671875,-0.0564727783203125,-0.4000396728515625
1665946344686853600,1.654853515625,-0.8929443359375,0.0013580322265625,-0.35858154296875
1665946344696935700,1.664935791015625,-0.911041259765625,-0.0126800537109375,-0.3076629638671875
1665946344707016700,1.6750166015625,-0.8135986328125,-0.0494232177734375,-0.298828125
1665946344717098800,1.6850986328125,-0.6353607177734375,-0.0372161865234375,-0.42449951171875
1665946344727180800,1.695180908203125,-0.45330810546875,-0.0064849853515625,-0.5460357666015625
1665946344737262600,1.7052626953125,-0.309600830078125,-0.0095672607421875,-0.65863037109375
1665946344747344400,1.715344482421875,-0.23370361328125,-0.01947021484375,-0.7633514404296875
1665946344757425700,1.72542578125,-0.170166015625,-0.066070556640625,-0.83770751953125
1665946344767507500,1.735507568359375,-0.120208740234375,-0.1103973388671875,-0.8589935302734375
1665946344777589500,1.745589599609375,-0.0818939208984375,-0.0954742431640625,-0.883697509765625
1665946344787671600,1.755671630859375,-0.0527496337890625,-0.0759735107421875,-0.8834075927734375
1665946344797753600,1.765753662109375,-0.0083465576171875,-0.079803466796875,-0.8511962890625
1665946344807834600,1.775834716796875,0.014678955078125,-0.0976715087890625,-0.8487548828125
1665946344817916700,1.785916748046875,0.056640625,-0.116943359375,-0.9041748046875
1665946344827998700,1.795998779296875,0.0643768310546875,-0.1327667236328125,-0.9346771240234375
1665946344838080800,1.806080810546875,0.0614013671875,-0.134490966796875,-0.946258544921875
1665946344848162600,1.81616259765625,0.0543212890625,-0.152313232421875,-0.9253387451171875
1665946344858244600,1.82624462890625,0.041839599609375,-0.1620635986328125,-0.901031494140625
1665946344868326700,1.83632666015625,0.0259857177734375,-0.1900177001953125,-0.87261962890625
1665946344878407700,1.84640771484375,0.0055999755859375,-0.23846435546875,-0.7886962890625
1665946344888489700,1.85648974609375,-0.0319366455078125,-0.298492431640625,-0.685333251953125
1665946344898571500,1.866571533203125,-0.126068115234375,-0.34423828125,-0.67230224609375
1665946344908653600,1.876653564453125,-0.182464599609375,-0.3199615478515625,-0.6911773681640625
1665946344918735600,1.886735595703125,-0.1217041015625,-0.29229736328125,-0.7147216796875
1665946344928816600,1.896816650390625,-0.152984619140625,-0.3401336669921875,-0.7627716064453125
1665946344938898700,1.906898681640625,-0.195709228515625,-0.3912811279296875,-0.7777099609375
1665946344948980500,1.91698046875,-0.0607757568359375,-0.40496826171875,-0.795989990234375
1665946344959062500,1.9270625,0.14727783203125,-0.381561279296875,-0.8255157470703125
1665946344969144600,1.93714453125,0.0702972412109375,-0.397674560546875,-0.852691650390625
1665946344979225600,1.9472255859375,-0.0211029052734375,-0.4030914306640625,-0.9625244140625
1665946344989307600,1.9573076171875,-0.008941650390625,-0.3916473388671875,-1.093231201171875
1665946344999389700,1.9673896484375,-0.009063720703125,-0.3736572265625,-1.2305450439453125
1665946345009471700,1.9774716796875,-0.0290069580078125,-0.4222412109375,-1.3763427734375
1665946345019553500,1.987553466796875,0.1140594482421875,-1.236907958984375,-1.3206329345703125
1665946345029634800,1.997634765625,0.6844329833984375,-1.8963623046875,-1.1174163818359375
1665946345039716600,2.007716552734375,0.903289794921875,-1.7357177734375,-1.0636138916015625
1665946345049798400,2.01779833984375,0.640777587890625,-1.398162841796875,-0.939208984375
1665946345059880400,2.02788037109375,0.3597564697265625,-0.8368072509765625,-0.87548828125
1665946345069962500,2.03796240234375,0.2342987060546875,-0.3437347412109375,-1.0227508544921875
1665946345080043500,2.04804345703125,0.4440155029296875,-0.081512451171875,-1.206512451171875
1665946345090125600,2.05812548828125,0.544158935546875,0.01544189453125,-1.3206787109375
1665946345100207600,2.06820751953125,0.302978515625,0.1078948974609375,-1.4091033935546875
1665946345110289700,2.07828955078125,0.27252197265625,0.2981109619140625,-1.743377685546875
1665946345120371500,2.088371337890625,0.1650543212890625,0.042022705078125,-1.538421630859375
1665946345130452700,2.09845263671875,0.4078216552734375,-0.283935546875,-1.237396240234375
1665946345140534500,2.108534423828125,0.40087890625,-0.575714111328125,-0.967071533203125
1665946345150616600,2.118616455078125,0.228363037109375,-0.6293487548828125,-0.6441802978515625
1665946345160698600,2.12869873046875,0.0919647216796875,-0.7291107177734375,-0.468841552734375
1665946345170780700,2.13878076171875,-0.01214599609375,-0.802581787109375,-0.445098876953125
1665946345180861700,2.14886181640625,-0.100860595703125,-0.690338134765625,-0.77081298828125
1665946345190943700,2.15894384765625,0.119903564453125,-0.4045562744140625,-0.9483184814453125
1665946345201025800,2.16902587890625,0.39129638671875,-0.478790283203125,-0.83099365234375
1665946345211107600,2.179107666015625,0.03131103515625,-0.79998779296875,-0.825408935546875
1665946345221188600,2.189188720703125,-0.0290374755859375,-0.93328857421875,-0.716033935546875
1665946345231270700,2.199270751953125,-0.08349609375,-1.00701904296875,-0.6996307373046875
1665946345241352400,2.2093525390625,-0.2078704833984375,-1.0293731689453125,-0.7302703857421875
1665946345251434500,2.2194345703125,-0.198455810546875,-0.8892364501953125,-0.8130035400390625
1665946345261515500,2.229515625,-0.21063232421875,-0.7624359130859375,-0.8858184814453125
1665946345271597600,2.23959765625,-0.225860595703125,-0.649017333984375,-0.90380859375
1665946345281679600,2.2496796875,-0.081817626953125,-0.5014801025390625,-0.905029296875
1665946345291761700,2.25976171875,0.1981658935546875,-0.4485015869140625,-0.7546539306640625
1665946345301843700,2.26984375,0.6191558837890625,-0.40008544921875,-0.3736724853515625
1665946345311924700,2.2799248046875,0.4713592529296875,-0.5528411865234375,0.01580810546875
1665946345322006800,2.2900068359375,0.163330078125,-0.7964935302734375,0.4125823974609375
1665946345332088800,2.3000888671875,0.5801544189453125,-1.0061492919921875,0.40911865234375
1665946345342170600,2.310170654296875,1.2089385986328125,-1.1406707763671875,-0.0858917236328125
1665946345352252700,2.320252685546875,0.8431549072265625,-1.257843017578125,-0.0927276611328125
1665946345362333400,2.33033349609375,0.309051513671875,-1.1839447021484375,-0.176025390625
1665946345372415700,2.340415771484375,0.14483642578125,-0.8218231201171875,-0.269775390625
1665946345382497800,2.350497802734375,0.2746734619140625,-0.4944305419921875,-0.465789794921875
1665946345392579800,2.360579833984375,0.3127593994140625,-0.420745849609375,-0.5974578857421875
1665946345402660900,2.370660888671875,0.1671905517578125,-0.36260986328125,-0.7070159912109375
1665946345412742700,2.38074267578125,-0.031494140625,-0.34490966796875,-0.702728271484375
1665946345422824700,2.39082470703125,-0.4391632080078125,-0.498779296875,-0.552001953125
1665946345432906800,2.40090673828125,-1.3305206298828125,-0.8970184326171875,-0.210845947265625
1665946345442988500,2.410988525390625,-1.50457763671875,-1.1845550537109375,0.0554656982421875
1665946345453069600,2.421069580078125,-0.5382843017578125,-1.016845703125,0.032318115234375
1665946345463151600,2.431151611328125,0.2314605712890625,-0.7467498779296875,0.098663330078125
1665946345473233700,2.441233642578125,0.608245849609375,-0.7111968994140625,0.2727813720703125
1665946345483315700,2.451315673828125,0.50640869140625,-0.9296875,0.378875732421875
1665946345493396700,2.461396728515625,0.090087890625,-1.2888641357421875,0.3619384765625
1665946345503478800,2.471478759765625,-0.5878753662109375,-1.64923095703125,0.2763214111328125
1665946345513560800,2.481560791015625,-1.05853271484375,-1.7580718994140625,0.0574951171875
1665946345523643000,2.491642822265625,-0.9427490234375,-1.6306915283203125,-0.2486572265625
1665946345533724700,2.501724609375,-0.565155029296875,-1.474700927734375,-0.515716552734375
1665946345543806000,2.511805908203125,-0.2450714111328125,-1.3544921875,-0.684906005859375
1665946345553887700,2.5218876953125,-0.06951904296875,-1.2611083984375,-0.6452484130859375
1665946345563969500,2.531969482421875,0.0263824462890625,-1.129852294921875,-0.3480987548828125
1665946345574051600,2.542051513671875,0.0755157470703125,-0.963653564453125,-0.09686279296875
1665946345584132600,2.552132568359375,0.0499267578125,-0.9048309326171875,0.0146331787109375
1665946345594214700,2.562214599609375,-0.217620849609375,-0.7569732666015625,-0.061004638671875
1665946345604296700,2.572296630859375,-0.0135345458984375,1.0308685302734375,-0.7245635986328125
1665946345614378800,2.582378662109375,-0.5359344482421875,0.89404296875,-0.0752716064453125
1665946345624460800,2.592460693359375,-0.3514556884765625,0.5533599853515625,0.2254180908203125
1665946345634541800,2.602541748046875,-0.05584716796875,0.433135986328125,0.0589141845703125
1665946345644624000,2.612623779296875,-0.28460693359375,0.0018157958984375,0.0886688232421875
1665946345654705700,2.62270556640625,-0.4803466796875,-0.345947265625,0.0016021728515625
1665946345664787700,2.63278759765625,-0.613372802734375,-0.601593017578125,-0.17724609375
1665946345674868700,2.64286865234375,-0.6981658935546875,-0.7313385009765625,-0.2731170654296875
1665946345684950800,2.65295068359375,-0.6400604248046875,-0.875213623046875,-0.2702484130859375
1665946345695032800,2.66303271484375,-0.470123291015625,-0.940673828125,-0.2061767578125
1665946345705115000,2.673114990234375,-0.1704559326171875,-0.7205810546875,-0.195159912109375
1665946345715195600,2.683195556640625,-0.094085693359375,-0.8459014892578125,-0.130889892578125
1665946345725277700,2.693277587890625,-0.060760498046875,-1.0656280517578125,-0.116180419921875
1665946345735359700,2.70335986328125,0.013153076171875,-2.7730255126953125,-0.5938873291015625
1665946345745441800,2.71344189453125,-0.0614776611328125,-4.671142578125,-1.24591064453125
1665946345755523600,2.723523681640625,-0.1762542724609375,-1.661376953125,-1.0944366455078125
1665946345765604600,2.7336044921875,-0.586822509765625,-1.05743408203125,-0.4904022216796875
1665946345775686700,2.743686767578125,-0.576141357421875,-1.384918212890625,0.0312957763671875
1665946345785768700,2.753768798828125,-0.49969482421875,-1.298614501953125,0.291229248046875
1665946345795850800,2.763850830078125,-0.3997802734375,-1.0427703857421875,0.418121337890625
1665946345805931800,2.773931884765625,-0.227813720703125,-0.4383544921875,0.585418701171875
1665946345816013800,2.784013916015625,-0.4755859375,-1.2219085693359375,0.7661895751953125
1665946345826095900,2.794095947265625,-0.3296051025390625,-1.561767578125,0.195587158203125
1665946345836178000,2.804177978515625,-0.2168731689453125,-1.355560302734375,-0.0152130126953125
1665946345846259700,2.814259765625,-0.1052703857421875,-1.052764892578125,-0.2889251708984375
1665946345856340700,2.8243408203125,-0.1305999755859375,-0.44769287109375,-0.4302215576171875
1665946345866422500,2.834422607421875,-0.199615478515625,-0.4927825927734375,-0.1229095458984375
1665946345876504600,2.844504638671875,-0.28436279296875,-0.630279541015625,-0.12774658203125
1665946345886586600,2.854586669921875,-0.483795166015625,-0.7110748291015625,-0.126068115234375
1665946345896667600,2.864667724609375,-0.461761474609375,-0.81854248046875,-0.2350921630859375
1665946345906749700,2.874749755859375,-0.4210662841796875,-0.9052886962890625,-0.2208404541015625
1665946345916831700,2.884831787109375,-0.3861236572265625,-0.9540557861328125,-0.124908447265625
1665946345926913800,2.894913818359375,-0.368499755859375,-0.9901123046875,-0.1629638671875
1665946345936994800,2.904994873046875,-0.382537841796875,-1.0504913330078125,-0.16937255859375
1665946345947076900,2.915076904296875,-0.3316802978515625,-0.99798583984375,-0.1731414794921875
1665946345957159000,2.925158935546875,-0.2817535400390625,-1.0114288330078125,-0.075897216796875
1665946345967240700,2.93524072265625,-0.239349365234375,-0.99798583984375,-0.0918121337890625
1665946345977321700,2.94532177734375,-0.2657318115234375,-1.0099639892578125,-0.07086181640625
1665946345987403500,2.955403564453125,-0.2948455810546875,-1.0300445556640625,-0.0200958251953125
1665946345997485600,2.965485595703125,-0.2530364990234375,-0.9863433837890625,-0.0305938720703125
1665946346007567600,2.975567626953125,-0.2174072265625,-0.894805908203125,-0.061126708984375
1665946346017649700,2.985649658203125,-0.1736297607421875,-0.916107177734375,0.0897064208984375
1665946346027730700,2.995730712890625,-0.1104736328125,-0.9512939453125,0.1108856201171875
1665946346037812700,3.005812744140625,-0.1256561279296875,-0.8115997314453125,0.0191650390625
1665946346047894800,3.015894775390625,-0.157257080078125,-0.90618896484375,0.0489044189453125
1665946346057976800,3.025976806640625,-0.0766448974609375,-0.9022369384765625,-0.0014801025390625
1665946346068057900,3.036057861328125,-0.0428009033203125,-0.95587158203125,0.081451416015625
1665946346078140000,3.046139892578125,-0.0294952392578125,-1.0846710205078125,0.168609619140625
1665946346088221700,3.0562216796875,0.02923583984375,-1.0557098388671875,0.133087158203125
1665946346098303700,3.0663037109375,0.069366455078125,-1.0833892822265625,0.168975830078125
1665946346108384800,3.076384765625,0.0140228271484375,-1.0829315185546875,0.182830810546875
1665946346118466600,3.086466552734375,-0.0417327880859375,-1.0194244384765625,0.1522216796875
1665946346128547600,3.096547607421875,-0.0632171630859375,-1.026397705078125,0.2057342529296875
1665946346138629600,3.106629638671875,-0.10247802734375,-1.2398681640625,0.2994384765625
1665946346148711700,3.116711669921875,-0.0931854248046875,-1.263397216796875,0.222808837890625
1665946346158793700,3.126793701171875,-0.07586669921875,-1.267364501953125,0.118133544921875
1665946346168874800,3.136874755859375,-0.013641357421875,-1.2589874267578125,0.0188446044921875
1665946346178956800,3.146956787109375,-0.000640869140625,-1.1983795166015625,-0.068328857421875
1665946346189038800,3.157038818359375,0.00701904296875,-1.13543701171875,-0.0957183837890625
1665946346199120600,3.16712060546875,0.0400543212890625,-1.0679473876953125,-0.0540618896484375
1665946346209202700,3.17720263671875,0.0839385986328125,-1.0150299072265625,-0.0086822509765625
1665946346219283700,3.18728369140625,0.078338623046875,-0.98077392578125,0.01947021484375
1665946346229365800,3.19736572265625,0.0164337158203125,-0.8967132568359375,0.01177978515625
1665946346239447800,3.20744775390625,-0.0419769287109375,-0.7687835693359375,-0.01629638671875
1665946346249529900,3.21752978515625,-0.1510162353515625,-0.876617431640625,0.1841888427734375
1665946346259610600,3.227610595703125,-0.188690185546875,-0.9268341064453125,0.1890106201171875
1665946346269692700,3.237692626953125,-0.1400146484375,-0.9422454833984375,0.108184814453125
1665946346279774700,3.247774658203125,-0.1354827880859375,-0.9766845703125,0.0320281982421875
1665946346289856800,3.257856689453125,-0.1571044921875,-0.9697113037109375,-0.05560302734375
1665946346299937800,3.267937744140625,-0.1609649658203125,-1.0099945068359375,-0.0879669189453125
1665946346310019800,3.278019775390625,-0.1568603515625,-1.0636444091796875,-0.067657470703125
1665946346320101600,3.2881015625,-0.15191650390625,-1.090087890625,-0.0357818603515625
1665946346330183700,3.29818359375,-0.1367645263671875,-1.1091156005859375,-0.016143798828125
1665946346340264700,3.3082646484375,-0.138946533203125,-1.108489990234375,-0.0018310546875
1665946346350346800,3.3183466796875,-0.159576416015625,-1.0951080322265625,0.0186614990234375
1665946346360428800,3.3284287109375,-0.1786041259765625,-1.078216552734375,0.0306549072265625
1665946346370510800,3.3385107421875,-0.180877685546875,-1.0767669677734375,0.0289306640625
1665946346380590000,3.348590087890625,-0.1776885986328125,-1.1020660400390625,0.0486297607421875
1665946346390672100,3.358672119140625,-0.145263671875,-1.1633453369140625,0.077728271484375
1665946346400754200,3.368754150390625,-0.0945587158203125,-1.2054290771484375,0.0853271484375
1665946346410836200,3.378836181640625,-0.07244873046875,-1.203277587890625,0.089996337890625
1665946346420917200,3.388917236328125,-0.0644989013671875,-1.16754150390625,0.083404541015625
1665946346430999300,3.398999267578125,-0.0393829345703125,-1.1549530029296875,0.0488739013671875
1665946346441081300,3.409081298828125,-0.075775146484375,-1.1356048583984375,-0.00103759765625
1665946346451163400,3.419163330078125,-0.140106201171875,-1.11590576171875,-0.0359649658203125
1665946346461244400,3.429244384765625,-0.1742706298828125,-1.12884521484375,-0.07373046875
1665946346471326500,3.439326416015625,-0.180389404296875,-1.166595458984375,-0.1659393310546875
1665946346481408300,3.449408203125,-0.17047119140625,-1.2499237060546875,-0.18011474609375
1665946346491490300,3.459490234375,-0.1419525146484375,-1.365936279296875,-0.0246734619140625
1665946346501571000,3.469571044921875,-0.1211700439453125,-1.423980712890625,0.1082763671875
1665946346511653000,3.479653076171875,-0.0501556396484375,-1.50750732421875,0.2025604248046875
1665946346521735200,3.489735107421875,-0.035919189453125,-1.4532012939453125,0.248504638671875
1665946346531817200,3.499817138671875,-0.0426483154296875,-1.2276458740234375,0.2168121337890625
1665946346541899300,3.509899169921875,0.0030670166015625,-0.999114990234375,0.15960693359375
1665946346551980300,3.519980224609375,0.0798492431640625,-0.9246673583984375,0.135040283203125
1665946346562062300,3.530062255859375,0.095611572265625,-1.09814453125,0.139923095703125
1665946346572144400,3.540144287109375,0.065582275390625,-1.1475372314453125,0.1976470947265625
1665946346582226200,3.55022607421875,0.049713134765625,-1.0846099853515625,0.2575531005859375
1665946346592307500,3.560307373046875,-0.02044677734375,-1.036834716796875,0.293609619140625
1665946346602389200,3.57038916015625,-0.123321533203125,-0.9411773681640625,0.31610107421875
1665946346612471300,3.58047119140625,-0.2501373291015625,-0.651031494140625,0.2192840576171875
1665946346622553300,3.59055322265625,-0.2777252197265625,-0.448822021484375,0.217987060546875
1665946346632634000,3.600634033203125,-0.298583984375,-0.4475860595703125,0.392242431640625
1665946346642716200,3.610716064453125,-0.316741943359375,-0.4494171142578125,0.4044952392578125
1665946346652798200,3.620798095703125,-0.311370849609375,-0.46014404296875,0.3083953857421875
1665946346662880300,3.63088037109375,-0.253204345703125,-0.4601287841796875,0.366607666015625
1665946346672961300,3.640961181640625,-0.2472686767578125,-0.3333587646484375,0.300079345703125
1665946346683043300,3.651043212890625,-0.2696075439453125,-0.250640869140625,0.1531982421875
1665946346693125000,3.661125,-0.2756500244140625,-0.2408599853515625,0.125091552734375
1665946346703207200,3.671207275390625,-0.2578125,-0.3639068603515625,0.1599884033203125
1665946346713288200,3.6812880859375,-0.2529144287109375,-0.4962005615234375,0.202239990234375
1665946346723370200,3.691370361328125,-0.26129150390625,-0.43878173828125,0.23388671875
1665946346733452300,3.701452392578125,-0.25140380859375,-0.336517333984375,0.259368896484375
1665946346743534300,3.711534423828125,-0.2236175537109375,-0.2792510986328125,0.2716522216796875
1665946346753615400,3.721615478515625,-0.209442138671875,-0.2588653564453125,0.28668212890625
1665946346763697400,3.731697509765625,-0.213531494140625,-0.306793212890625,0.32061767578125
1665946346773779200,3.741779296875,-0.229095458984375,-0.4663543701171875,0.374786376953125
1665946346783861200,3.751861328125,-0.2545318603515625,-0.72943115234375,0.447479248046875
1665946346793942300,3.7619423828125,-0.2537841796875,-1.0138092041015625,0.5245361328125
1665946346804024300,3.7720244140625,-0.2987823486328125,-1.3247528076171875,0.6036376953125
1665946346814106000,3.782106201171875,-0.34820556640625,-1.70831298828125,0.65191650390625
1665946346824188200,3.792188232421875,-0.2924957275390625,-1.958648681640625,0.61639404296875
1665946346834269200,3.802269287109375,-0.2285614013671875,-2.1001434326171875,0.5051116943359375
1665946346844351200,3.812351318359375,-0.1190643310546875,-1.902740478515625,0.30657958984375
1665946346854433300,3.822433349609375,-0.1763763427734375,-1.47320556640625,0.04083251953125
1665946346864515300,3.832515380859375,-0.3017730712890625,-0.9960784912109375,-0.051605224609375
1665946346874597400,3.842597412109375,-0.2857513427734375,-0.663360595703125,-0.152557373046875
1665946346884678400,3.852678466796875,-0.2049713134765625,-0.6812896728515625,-0.1451263427734375
1665946346894760400,3.862760498046875,-0.25311279296875,-0.7315673828125,0.0370635986328125
1665946346904842500,3.872842529296875,-0.2444000244140625,-0.810546875,0.232421875
1665946346914924300,3.88292431640625,-0.2031097412109375,-0.92138671875,0.3149566650390625
1665946346925005300,3.89300537109375,-0.1719512939453125,-0.952301025390625,0.28265380859375
1665946346935087000,3.903087158203125,-0.15472412109375,-0.9623565673828125,0.326507568359375
1665946346945169200,3.913169189453125,-0.1695709228515625,-0.99261474609375,0.4199676513671875
1665946346955251200,3.923251220703125,-0.2213592529296875,-0.9742279052734375,0.463287353515625
1665946346965332200,3.933332275390625,-0.283843994140625,-0.9064178466796875,0.435760498046875
1665946346975414300,3.943414306640625,-0.3385009765625,-0.839080810546875,0.3594818115234375
1665946346985496300,3.953496337890625,-0.3702850341796875,-0.811553955078125,0.258514404296875
1665946346995578400,3.963578369140625,-0.4092864990234375,-0.8208465576171875,0.2194061279296875
1665946347005659400,3.973659423828125,-0.425445556640625,-0.861724853515625,0.2851104736328125
1665946347015741400,3.983741455078125,-0.367828369140625,-0.894439697265625,0.312347412109375
1665946347025823200,3.9938232421875,-0.3400115966796875,-0.892181396484375,0.3195037841796875
1665946347035905300,4.0039052734375,-0.351470947265625,-0.8662872314453125,0.3487396240234375
1665946347045986000,4.013986083984375,-0.3730010986328125,-0.88043212890625,0.38958740234375
1665946347056068000,4.024068115234375,-0.315093994140625,-0.88238525390625,0.4138946533203125
1665946347066150100,4.034150146484375,-0.35467529296875,-0.8136444091796875,0.422088623046875
1665946347076232200,4.044232177734375,-0.4709014892578125,-0.79351806640625,0.4351654052734375
1665946347086313200,4.054313232421875,-0.46044921875,-0.7911224365234375,0.419769287109375
1665946347096395300,4.064395263671875,-0.4411163330078125,-0.78814697265625,0.38983154296875
1665946347106477300,4.074477294921875,-0.425048828125,-0.7877349853515625,0.35821533203125
1665946347116559400,4.084559326171875,-0.4078216552734375,-0.799591064453125,0.3209075927734375
1665946347126641200,4.09464111328125,-0.3753814697265625,-0.79400634765625,0.28216552734375
1665946347136722400,4.104722412109375,-0.36767578125,-0.7711334228515625,0.243896484375
1665946347146804200,4.11480419921875,-0.3847808837890625,-0.787139892578125,0.224212646484375
1665946347156886300,4.12488623046875,-0.4083099365234375,-0.813934326171875,0.219757080078125
1665946347166968300,4.13496826171875,-0.433258056640625,-0.8321533203125,0.2212677001953125
1665946347177049000,4.145049072265625,-0.4447174072265625,-0.830963134765625,0.2068328857421875
1665946347187131100,4.155131103515625,-0.466552734375,-0.805877685546875,0.1709747314453125
1665946347197213200,4.165213134765625,-0.4946746826171875,-0.782073974609375,0.1388397216796875
1665946347207295200,4.175295166015625,-0.506439208984375,-0.766693115234375,0.12664794921875
1665946347217376300,4.185376220703125,-0.502655029296875,-0.7350921630859375,0.1184234619140625
1665946347227458300,4.195458251953125,-0.494537353515625,-0.7093963623046875,0.124359130859375
1665946347237540400,4.205540283203125,-0.500579833984375,-0.6907501220703125,0.1181640625
1665946347247622100,4.2156220703125,-0.4945068359375,-0.7062225341796875,0.1250152587890625
1665946347257703400,4.225703369140625,-0.4973297119140625,-0.7194366455078125,0.139801025390625
1665946347267785200,4.23578515625,-0.502777099609375,-0.70684814453125,0.150970458984375
1665946347277867300,4.2458671875,-0.51177978515625,-0.6883697509765625,0.158050537109375
1665946347287949300,4.25594921875,-0.527801513671875,-0.6750640869140625,0.146728515625
1665946347298030300,4.2660302734375,-0.556732177734375,-0.66229248046875,0.138397216796875
1665946347308112400,4.2761123046875,-0.5858154296875,-0.649169921875,0.1266021728515625
1665946347318194400,4.2861943359375,-0.586334228515625,-0.655120849609375,0.1121368408203125
1665946347328276200,4.296276123046875,-0.5771942138671875,-0.6837005615234375,0.1067962646484375
1665946347338358300,4.306358154296875,-0.56854248046875,-0.7165679931640625,0.11517333984375
1665946347348439300,4.316439208984375,-0.5883026123046875,-0.7385406494140625,0.1292877197265625
1665946347358521300,4.326521240234375,-0.585968017578125,-0.7415313720703125,0.142120361328125
1665946347368603100,4.33660302734375,-0.5814056396484375,-0.7137908935546875,0.14605712890625
1665946347378686700,4.346686767578125,-0.608154296875,-0.662445068359375,0.1472625732421875
1665946347388767700,4.356767822265625,-0.650238037109375,-0.6246337890625,0.14093017578125
1665946347398849500,4.366849609375,-0.6762847900390625,-0.604583740234375,0.136810302734375
1665946347408931600,4.376931640625,-0.639617919921875,-0.58587646484375,0.134521484375
1665946347419013400,4.387013427734375,-0.618133544921875,-0.5747528076171875,0.1269989013671875
1665946347429094700,4.3970947265625,-0.67462158203125,-0.5753326416015625,0.132476806640625
1665946347439176400,4.407176513671875,-0.71990966796875,-0.592620849609375,0.14056396484375
1665946347449258500,4.417258544921875,-0.749237060546875,-0.588836669921875,0.1481781005859375
1665946347459340500,4.427340576171875,-0.8037872314453125,-0.5984039306640625,0.16754150390625
1665946347469421600,4.437421630859375,-0.8093109130859375,-0.613555908203125,0.197509765625
1665946347479503600,4.447503662109375,-0.7607574462890625,-0.607391357421875,0.2258148193359375
1665946347489585700,4.457585693359375,-0.759918212890625,-0.58746337890625,0.2469024658203125
1665946347499667700,4.467667724609375,-0.8203125,-0.567291259765625,0.2828826904296875
1665946347509748700,4.477748779296875,-0.8259124755859375,-0.533935546875,0.3026885986328125
1665946347519830800,4.487830810546875,-0.8396148681640625,-0.5025634765625,0.3052978515625
1665946347529912800,4.497912841796875,-0.7992095947265625,-0.4870452880859375,0.29888916015625
1665946347539994600,4.50799462890625,-0.7869415283203125,-0.4868927001953125,0.264801025390625
1665946347550075600,4.51807568359375,-0.8671722412109375,-0.476470947265625,0.26739501953125
1665946347560157400,4.528157470703125,-0.86444091796875,-0.4749298095703125,0.2740478515625
1665946347570239500,4.538239501953125,-0.80517578125,-0.4366607666015625,0.2666473388671875
1665946347580321500,4.548321533203125,-0.80718994140625,-0.3863067626953125,0.2779693603515625
1665946347590402600,4.558402587890625,-0.7687835693359375,-0.373565673828125,0.228546142578125
1665946347600484600,4.568484619140625,-0.8160400390625,-0.2978057861328125,0.2366485595703125
1665946347610566700,4.578566650390625,-0.8385467529296875,-0.3042449951171875,0.2452239990234375
1665946347620648700,4.588648681640625,-0.802886962890625,-0.2859649658203125,0.215545654296875
1665946347630729700,4.598729736328125,-0.8268890380859375,-0.254302978515625,0.20947265625
1665946347640811800,4.608811767578125,-0.86688232421875,-0.325347900390625,0.1649627685546875
1665946347650893600,4.6188935546875,-0.8751373291015625,-0.31134033203125,0.1587371826171875
1665946347660975600,4.6289755859375,-0.8961181640625,-0.273773193359375,0.160003662109375
1665946347671056400,4.639056396484375,-0.906219482421875,-0.26715087890625,0.1390228271484375
1665946347681138400,4.649138427734375,-0.89019775390625,-0.2234039306640625,0.1400909423828125
1665946347691220500,4.659220458984375,-0.8828582763671875,-0.2129364013671875,0.1299896240234375
1665946347701301500,4.669301513671875,-0.8900909423828125,-0.181549072265625,0.1353302001953125
1665946347711383600,4.679383544921875,-0.900970458984375,-0.1475982666015625,0.1480865478515625
1665946347721465600,4.689465576171875,-0.9207000732421875,-0.1437530517578125,0.1203460693359375
1665946347731547600,4.699547607421875,-0.9592437744140625,-0.1204681396484375,0.0954437255859375
1665946347741628700,4.709628662109375,-0.9988250732421875,-0.10498046875,0.06365966796875
1665946347751710700,4.719710693359375,-1.0601959228515625,-0.071380615234375,0.041046142578125
1665946347761792800,4.729792724609375,-1.1542816162109375,-0.018524169921875,0.0558929443359375
1665946347771874600,4.73987451171875,-1.2616119384765625,0.0039825439453125,0.0660858154296875
1665946347781955800,4.749955810546875,-1.3538360595703125,0.0242462158203125,0.09112548828125
1665946347792037400,4.760037353515625,-1.4107818603515625,0.017578125,0.1185455322265625
1665946347802119400,4.770119384765625,-1.4611053466796875,-0.024810791015625,0.1163177490234375
1665946347812201500,4.780201416015625,-1.494659423828125,-0.0953369140625,0.09893798828125
1665946347822282500,4.790282470703125,-1.4428863525390625,-0.220428466796875,0.11334228515625
1665946347832364500,4.800364501953125,-1.3666839599609375,-0.229827880859375,0.1360015869140625
1665946347842446600,4.810446533203125,-1.3473358154296875,-0.1148223876953125,0.1429443359375
1665946347852528600,4.820528564453125,-1.4652862548828125,0.1086578369140625,0.098907470703125
1665946347862609700,4.830609619140625,-1.4129486083984375,0.074615478515625,0.1113739013671875
1665946347872691700,4.840691650390625,-1.310302734375,-0.015167236328125,0.1274871826171875
1665946347882773800,4.850773681640625,-1.2744140625,0.0029449462890625,0.081512451171875
1665946347892855600,4.86085546875,-1.2735748291015625,-0.01190185546875,0.03363037109375
1665946347902936600,4.8709365234375,-1.268035888671875,-0.003662109375,-0.00396728515625
1665946347913018600,4.8810185546875,-1.2349853515625,0.00079345703125,-0.031402587890625
1665946347923100700,4.8911005859375,-1.1598968505859375,-0.0201416015625,-0.0352935791015625
1665946347933182700,4.9011826171875,-1.1083221435546875,-0.0516510009765625,-0.0487060546875
1665946347943264800,4.9112646484375,-1.064239501953125,-0.05255126953125,-0.0829010009765625
1665946347953345500,4.921345458984375,-1.0123748779296875,-0.0542449951171875,-0.1196746826171875
1665946347963427600,4.931427490234375,-0.976959228515625,-0.0582733154296875,-0.143402099609375
1665946347973509600,4.941509521484375,-0.9520416259765625,-0.0688934326171875,-0.1544647216796875
1665946347983591700,4.951591796875,-0.948272705078125,-0.0743560791015625,-0.161651611328125
1665946347993672700,4.961672607421875,-0.970916748046875,-0.0853118896484375,-0.1619720458984375
1665946348003754500,4.97175439453125,-0.9979705810546875,-0.0889892578125,-0.157562255859375
1665946348013836500,4.98183642578125,-1.02789306640625,-0.0935211181640625,-0.1690673828125
1665946348023918600,4.991918701171875,-1.023712158203125,-0.101409912109375,-0.16827392578125
1665946348033999600,5.00199951171875,-0.989532470703125,-0.0999755859375,-0.14874267578125
1665946348044081700,5.01208154296875,-0.9864044189453125,-0.0850677490234375,-0.1322784423828125
1665946348054163700,5.022163818359375,-0.99395751953125,-0.0619659423828125,-0.1170806884765625
1665946348064245800,5.032245849609375,-0.987762451171875,-0.0370025634765625,-0.1002960205078125
1665946348074326500,5.042326416015625,-0.997161865234375,-0.009674072265625,-0.0865020751953125
1665946348084408600,5.05240869140625,-1.0166778564453125,0.0103607177734375,-0.0782928466796875
1665946348094490600,5.06249072265625,-1.006439208984375,0.01092529296875,-0.0758819580078125
1665946348104572400,5.072572509765625,-0.999359130859375,0.017364501953125,-0.0745697021484375
1665946348114653700,5.08265380859375,-0.9722900390625,0.0217742919921875,-0.07568359375
1665946348124735500,5.092735595703125,-0.973968505859375,0.0282745361328125,-0.07586669921875
1665946348134817500,5.102817626953125,-0.989898681640625,0.020843505859375,-0.0776519775390625
1665946348144899600,5.112899658203125,-1.01361083984375,0.01898193359375,-0.0863189697265625
1665946348154980600,5.122980712890625,-1.032562255859375,0.015472412109375,-0.09954833984375
1665946348165062700,5.133062744140625,-1.025299072265625,0.0162506103515625,-0.1178131103515625
1665946348175144700,5.143144775390625,-1.0170745849609375,0.017852783203125,-0.135223388671875
1665946348185226800,5.153226806640625,-1.0150909423828125,0.0129547119140625,-0.1529693603515625
1665946348195307500,5.1633076171875,-1.0133056640625,-0.0008392333984375,-0.162261962890625
1665946348205389600,5.1733896484375,-1.0006256103515625,-0.0062255859375,-0.1496734619140625
1665946348215471600,5.1834716796875,-0.9876251220703125,-0.000579833984375,-0.1371002197265625
1665946348225553400,5.193553466796875,-0.985015869140625,0.0003204345703125,-0.1266021728515625
1665946348235635500,5.203635498046875,-0.97796630859375,0.0060882568359375,-0.1349029541015625
1665946348245716500,5.213716552734375,-0.9791412353515625,0.016998291015625,-0.157745361328125
1665946348255798500,5.223798583984375,-0.9619140625,0.0268707275390625,-0.16326904296875
1665946348265880600,5.233880615234375,-0.9372100830078125,0.0511932373046875,-0.1593780517578125
1665946348275962600,5.243962646484375,-0.94586181640625,0.07098388671875,-0.1508331298828125
1665946348286043600,5.254043701171875,-0.9488525390625,0.069915771484375,-0.14697265625
1665946348296125700,5.264125732421875,-0.9678192138671875,0.067657470703125,-0.1483306884765625
1665946348306207700,5.274207763671875,-0.98712158203125,0.068695068359375,-0.1522369384765625
1665946348316289500,5.28428955078125,-0.9951934814453125,0.0708465576171875,-0.1634521484375
1665946348326370800,5.294370849609375,-1.004669189453125,0.0745086669921875,-0.1740570068359375
1665946348336452600,5.30445263671875,-0.98980712890625,0.0808868408203125,-0.1862945556640625
1665946348346534400,5.314534423828125,-0.9694976806640625,0.0891876220703125,-0.1988677978515625
1665946348356616400,5.324616455078125,-0.9519195556640625,0.1040496826171875,-0.2062835693359375
1665946348366697500,5.334697509765625,-0.9231109619140625,0.1190338134765625,-0.2039794921875
1665946348376778800,5.34477880859375,-0.909637451171875,0.1229248046875,-0.199798583984375
1665946348386860800,5.35486083984375,-0.904327392578125,0.121124267578125,-0.188232421875
1665946348396942800,5.36494287109375,-0.899810791015625,0.1229095458984375,-0.17877197265625
1665946348407023900,5.37502392578125,-0.9050445556640625,0.136199951171875,-0.17230224609375
1665946348417106000,5.38510595703125,-0.9324798583984375,0.1568450927734375,-0.1714019775390625
1665946348427188000,5.39518798828125,-0.969818115234375,0.167724609375,-0.1712493896484375
1665946348437270000,5.40527001953125,-0.9871978759765625,0.158599853515625,-0.1683502197265625
1665946348447351000,5.41535107421875,-0.989501953125,0.1425018310546875,-0.160552978515625
1665946348457433000,5.42543310546875,-0.99853515625,0.1382904052734375,-0.15911865234375
1665946348467515000,5.435514892578125,-1.0209808349609375,0.1285858154296875,-0.16400146484375
1665946348477597000,5.445596923828125,-0.9117889404296875,0.170440673828125,-0.1631622314453125
1665946348487677700,5.455677734375,-0.921417236328125,0.154998779296875,-0.15081787109375
1665946348497759700,5.465759765625,-0.90606689453125,0.16156005859375,-0.1504974365234375
1665946348507841800,5.475841796875,-0.980010986328125,0.130096435546875,-0.1556854248046875
1665946348517923800,5.485923828125,-0.9716644287109375,0.1228179931640625,-0.1534881591796875
1665946348528004900,5.4960048828125,-0.9514007568359375,0.1502532958984375,-0.1285400390625
1665946348538087000,5.5060869140625,-0.9953765869140625,0.12689208984375,-0.0917816162109375
1665946348548169000,5.5161689453125,-0.96478271484375,0.1134033203125,-0.1212310791015625
1665946348558251000,5.5262509765625,-0.9944000244140625,0.1058197021484375,-0.1767120361328125
1665946348568332800,5.536332763671875,-1.0237579345703125,0.077301025390625,-0.1509552001953125
1665946348578414000,5.5464140625,-1.0597991943359375,0.056915283203125,-0.1463470458984375
1665946348588496000,5.556495849609375,-1.02386474609375,0.0807952880859375,-0.15185546875
1665946348598578000,5.566577880859375,-1.0454254150390625,0.0832672119140625,-0.1566619873046875
1665946348608660000,5.576659912109375,-1.0108184814453125,0.0848541259765625,-0.15826416015625
1665946348618740700,5.58674072265625,-1.031219482421875,0.0855865478515625,-0.169219970703125
1665946348628822800,5.59682275390625,-1.0263824462890625,0.0972900390625,-0.18389892578125
1665946348638904800,5.60690478515625,-1.01800537109375,0.1003875732421875,-0.197662353515625
1665946348648987000,5.61698681640625,-0.9219970703125,0.117645263671875,-0.165008544921875
1665946348659068000,5.62706787109375,-0.95654296875,0.075836181640625,-0.140045166015625
1665946348669150000,5.63714990234375,-0.987274169921875,0.0410919189453125,-0.126373291015625
1665946348679232000,5.64723193359375,-0.985443115234375,0.025665283203125,-0.111328125
1665946348689313800,5.657313720703125,-0.97442626953125,0.0226898193359375,-0.0921173095703125
1665946348699394800,5.667394775390625,-0.9907989501953125,0.003265380859375,-0.090972900390625
1665946348709476900,5.677476806640625,-0.993927001953125,-0.0194091796875,-0.0713958740234375
1665946348719559000,5.687558837890625,-1.0027008056640625,-0.039764404296875,-0.0526123046875
1665946348729641000,5.697640869140625,-0.9949951171875,-0.0432281494140625,-0.046630859375
1665946348739722000,5.707721923828125,-0.993072509765625,-0.0294189453125,-0.0538482666015625
1665946348749803800,5.7178037109375,-0.9986419677734375,-0.0201263427734375,-0.0583038330078125
1665946348759885800,5.7278857421875,-1.0012054443359375,-0.013153076171875,-0.05810546875
1665946348769967900,5.7379677734375,-1.00579833984375,-0.0082855224609375,-0.059478759765625
1665946348780049000,5.748048828125,-1.01361083984375,-0.0089111328125,-0.0659027099609375
1665946348790131000,5.758130859375,-1.00830078125,-0.0181427001953125,-0.072296142578125
1665946348800212700,5.768212646484375,-0.998046875,-0.0430755615234375,-0.0728912353515625
1665946348810294800,5.778294677734375,-1.0035552978515625,-0.067626953125,-0.0736541748046875
1665946348820375800,5.788375732421875,-1.00494384765625,-0.090576171875,-0.0662078857421875
1665946348830457900,5.798457763671875,-0.9998016357421875,-0.1135101318359375,-0.056365966796875
1665946348840540000,5.808539794921875,-0.992645263671875,-0.1158599853515625,-0.0523834228515625
1665946348850622000,5.8186220703125,-0.990997314453125,-0.10760498046875,-0.050079345703125
1665946348860703000,5.828702880859375,-0.992523193359375,-0.1067962646484375,-0.056488037109375
1665946348870785000,5.838784912109375,-1.0040740966796875,-0.110260009765625,-0.0656890869140625
1665946348880867000,5.8488671875,-1.02630615234375,-0.1101226806640625,-0.0738067626953125
1665946348890949000,5.85894921875,-1.038848876953125,-0.1026611328125,-0.081085205078125
1665946348901030000,5.86902978515625,-1.027679443359375,-0.097015380859375,-0.0890960693359375
1665946348911112000,5.87911181640625,-1.005950927734375,-0.093719482421875,-0.10003662109375
1665946348921193700,5.88919384765625,-0.9965057373046875,-0.0829315185546875,-0.1124420166015625
1665946348931275800,5.89927587890625,-0.9949951171875,-0.077606201171875,-0.122955322265625
1665946348941356800,5.909356689453125,-0.9860992431640625,-0.0755157470703125,-0.1285858154296875
1665946348951438800,5.91943896484375,-0.974945068359375,-0.07281494140625,-0.1240081787109375
1665946348961521000,5.92952099609375,-0.9670562744140625,-0.0705413818359375,-0.1068572998046875
1665946348971603000,5.93960302734375,-0.964202880859375,-0.0675811767578125,-0.0879058837890625
1665946348981685000,5.94968505859375,-0.9732208251953125,-0.0717926025390625,-0.0714111328125
1665946348991766000,5.95976611328125,-0.9885101318359375,-0.0812835693359375,-0.059234619140625
1665946349001848000,5.96984814453125,-1.0084228515625,-0.0861053466796875,-0.0522308349609375
1665946349011930000,5.97993017578125,-1.0286865234375,-0.0848541259765625,-0.051025390625
1665946349022012000,5.990011962890625,-1.029388427734375,-0.0885009765625,-0.053619384765625
1665946349032093000,6.000093017578125,-1.0264739990234375,-0.0963897705078125,-0.05352783203125
1665946349042174700,6.0101748046875,-1.0211181640625,-0.1070556640625,-0.0483245849609375
1665946349052256800,6.0202568359375,-1.00689697265625,-0.1201171875,-0.038421630859375
1665946349062338800,6.0303388671875,-0.99749755859375,-0.1265106201171875,-0.028411865234375
1665946349072419800,6.040419921875,-1.0060272216796875,-0.1261749267578125,-0.0268707275390625
1665946349082502000,6.050501953125,-1.0039825439453125,-0.1198272705078125,-0.0357208251953125
1665946349092584000,6.060583984375,-0.9868316650390625,-0.1115264892578125,-0.0513763427734375
1665946349102666000,6.070666015625,-0.981170654296875,-0.1033172607421875,-0.0606231689453125
1665946349112747000,6.0807470703125,-1.00250244140625,-0.0982513427734375,-0.05841064453125
1665946349122829000,6.0908291015625,-1.02130126953125,-0.10662841796875,-0.0499114990234375
1665946349132910800,6.100910888671875,-1.018951416015625,-0.114715576171875,-0.036285400390625
1665946349142993000,6.110992919921875,-0.9971466064453125,-0.1098785400390625,-0.013763427734375
1665946349153073700,6.12107373046875,-0.9770355224609375,-0.0880126953125,0.0074310302734375
1665946349163155700,6.13115576171875,-0.963043212890625,-0.0645599365234375,0.0229644775390625
1665946349173237800,6.14123779296875,-0.962646484375,-0.050018310546875,0.030670166015625
1665946349183319800,6.15131982421875,-0.9773101806640625,-0.0452880859375,0.030426025390625
1665946349193400800,6.16140087890625,-0.9823455810546875,-0.0523529052734375,0.0262451171875
1665946349203483000,6.17148291015625,-0.981964111328125,-0.053802490234375,0.020904541015625
1665946349213565000,6.18156494140625,-0.9934539794921875,-0.050384521484375,0.0126800537109375
1665946349223647000,6.19164697265625,-1.003570556640625,-0.0477142333984375,-0.00146484375
1665946349233728000,6.20172802734375,-1.013153076171875,-0.0496063232421875,-0.01470947265625
1665946349243810000,6.21181005859375,-1.0255584716796875,-0.05877685546875,-0.015838623046875
1665946349253891800,6.221891845703125,-1.0367279052734375,-0.0683746337890625,-0.011260986328125
1665946349263974000,6.231973876953125,-1.0416717529296875,-0.07733154296875,-0.0042572021484375
1665946349274055000,6.242054931640625,-1.04498291015625,-0.0839080810546875,-0.0016326904296875
1665946349284137000,6.252136962890625,-1.04461669921875,-0.08746337890625,-0.0020751953125
1665946349294218800,6.26221875,-1.031890869140625,-0.0831756591796875,-0.01007080078125
1665946349304300800,6.27230078125,-1.018646240234375,-0.0791168212890625,-0.022216796875
1665946349314381800,6.2823818359375,-1.0120391845703125,-0.078460693359375,-0.0280609130859375
1665946349324463900,6.2924638671875,-1.0140533447265625,-0.076446533203125,-0.0263214111328125
1665946349334546000,6.3025458984375,-1.013427734375,-0.07373046875,-0.0263824462890625
1665946349344628000,6.3126279296875,-1.0061798095703125,-0.065521240234375,-0.0286102294921875
1665946349354709800,6.322709716796875,-0.9992523193359375,-0.055267333984375,-0.0311737060546875
1665946349364791000,6.332791015625,-0.984649658203125,-0.046661376953125,-0.035858154296875
1665946349374872800,6.342872802734375,-0.9733123779296875,-0.04034423828125,-0.04522705078125
1665946349384955100,6.352955078125,-0.968475341796875,-0.034332275390625,-0.056549072265625
1665946349395037200,6.363037109375,-0.9713897705078125,-0.035858154296875,-0.061004638671875
1665946349405118200,6.3731181640625,-0.9803314208984375,-0.0443115234375,-0.063629150390625
1665946349415200300,6.3832001953125,-0.991546630859375,-0.055999755859375,-0.0634918212890625
1665946349425282300,6.3932822265625,-1.0022430419921875,-0.066680908203125,-0.0622711181640625
1665946349435364400,6.4033642578125,-1.006103515625,-0.07513427734375,-0.0653839111328125
1665946349445445400,6.4134453125,-1.007965087890625,-0.0764312744140625,-0.0709075927734375
1665946349455527400,6.42352734375,-1.0041351318359375,-0.071533203125,-0.0741119384765625
1665946349465609200,6.433609130859375,-0.996368408203125,-0.068206787109375,-0.0692596435546875
1665946349475691300,6.443691162109375,-0.9898223876953125,-0.065826416015625,-0.057586669921875
1665946398039201500,55.007201416015626,-0.74017333984375,-0.7389678955078125,0.12969970703125
1665946398049282600,55.01728247070312,-0.73675537109375,-0.694488525390625,0.0908050537109375
1665946398059363300,55.02736328125,-0.7766265869140625,-0.688323974609375,0.07366943359375
1665946398069444400,55.0374443359375,-0.82489013671875,-0.7114715576171875,0.0716094970703125
1665946398079526400,55.0475263671875,-0.8953094482421875,-0.68768310546875,0.0519866943359375
1665946398089607400,55.057607421875,-0.9237213134765625,-0.6440277099609375,0.04669189453125
1665946398099688400,55.0676884765625,-0.912322998046875,-0.6141357421875,0.0534515380859375
1665946398109769500,55.07776953125,-0.8843231201171875,-0.5886688232421875,0.0428466796875
1665946398119850500,55.0878505859375,-0.848175048828125,-0.5762939453125,0.0169525146484375
1665946398129931500,55.097931640625,-0.8003387451171875,-0.5190277099609375,0.0182647705078125
1665946398140012500,55.108012451171874,-0.7994232177734375,-0.4651336669921875,-0.0079193115234375
1665946398150094600,55.118094482421874,-0.8060302734375,-0.4967041015625,-0.0096282958984375
1665946398160175600,55.12817553710938,-0.799163818359375,-0.5284881591796875,0.0157623291015625
1665946398170256400,55.13825634765625,-0.80517578125,-0.5473480224609375,0.0142364501953125
1665946398180337400,55.14833740234375,-0.8100128173828125,-0.561065673828125,0.0041351318359375
1665946398190418400,55.15841845703125,-0.7952117919921875,-0.5523834228515625,0.005096435546875
1665946398200499500,55.16849951171875,-0.7867279052734375,-0.52020263671875,0.0200347900390625
1665946398210580500,55.17858056640625,-0.7851715087890625,-0.48968505859375,0.0366973876953125
1665946398220661500,55.18866162109375,-0.7715606689453125,-0.4882965087890625,0.0543975830078125
1665946398230743300,55.19874340820313,-0.7510528564453125,-0.5030059814453125,0.074951171875
1665946398240824600,55.208824462890625,-0.74078369140625,-0.5107574462890625,0.0727691650390625
1665946398250905600,55.21890551757812,-0.7198333740234375,-0.5077972412109375,0.0590057373046875
1665946398260986600,55.228986572265626,-0.72430419921875,-0.4969024658203125,0.040771484375
1665946398271067400,55.2390673828125,-0.750518798828125,-0.4662933349609375,0.0242919921875
1665946398281148400,55.2491484375,-0.8296966552734375,-0.485748291015625,-0.0672149658203125
1665946398291229400,55.2592294921875,-1.0541839599609375,-0.5665283203125,-0.2729339599609375
1665946398301310500,55.269310546875,-1.1556396484375,-0.637847900390625,-0.258270263671875
1665946398311392500,55.279392578125,-1.1146087646484375,-0.687286376953125,-0.1535797119140625
1665946398321473500,55.2894736328125,-1.0169677734375,-0.6670074462890625,-0.0275421142578125
1665946398331554300,55.29955419921875,-0.91375732421875,-0.629241943359375,0.0444793701171875
1665946398341635600,55.30963549804687,-0.8426361083984375,-0.589447021484375,0.05126953125
1665946398351716600,55.31971655273438,-0.7889556884765625,-0.580352783203125,0.043975830078125
1665946398361797600,55.329797607421874,-0.761962890625,-0.5928955078125,0.0346527099609375
1665946398371878400,55.33987841796875,-0.7691497802734375,-0.595001220703125,-0.0054779052734375
1665946398381960400,55.34996044921875,-0.868988037109375,-0.593536376953125,-0.10369873046875
1665946398392041500,55.36004150390625,-0.7518463134765625,-0.6662139892578125,-0.0732574462890625
1665946398402122500,55.37012255859375,-0.7920379638671875,-0.6998291015625,-0.0621185302734375
1665946398412203500,55.38020361328125,-0.801116943359375,-0.69976806640625,-0.05743408203125
1665946398422284300,55.3902841796875,-0.736480712890625,-0.662841796875,-0.0049285888671875
1665946398432365300,55.400365234375,-0.728668212890625,-0.6099700927734375,0.0346527099609375
1665946398442446600,55.41044653320313,-0.7757720947265625,-0.57562255859375,0.0735931396484375
1665946398452527600,55.420527587890625,-0.8142852783203125,-0.58050537109375,0.0713043212890625
1665946398462609400,55.430609375,-0.7906646728515625,-0.6027374267578125,0.04412841796875
1665946398472690700,55.44069067382812,-0.7525482177734375,-0.63116455078125,0.04583740234375
1665946398482771500,55.450771484375,-0.7461090087890625,-0.63397216796875,0.04449462890625
1665946398492852500,55.4608525390625,-0.78509521484375,-0.5802764892578125,-0.0305633544921875
1665946398502933500,55.47093359375,-0.7519683837890625,-0.6327362060546875,0.020965576171875
1665946398513014500,55.4810146484375,-0.7397308349609375,-0.6560516357421875,0.14111328125
1665946398523095300,55.49109521484375,-0.7360382080078125,-0.543609619140625,0.125213623046875
1665946398533177300,55.50117724609375,-0.6979217529296875,-0.4987335205078125,0.11737060546875
1665946398543258400,55.51125830078125,-0.7204742431640625,-0.6015777587890625,0.1096343994140625
1665946398553339400,55.52133935546875,-0.7473602294921875,-0.7253570556640625,0.0582427978515625
1665946398563420400,55.53142041015625,-0.7501983642578125,-0.7640838623046875,-0.00445556640625
1665946398573501700,55.54150170898438,-0.727142333984375,-0.7445831298828125,-0.0589447021484375
1665946398583582500,55.55158251953125,-0.6923065185546875,-0.730804443359375,-0.0882415771484375
1665946398593663500,55.56166357421875,-0.6846771240234375,-0.7186279296875,-0.107818603515625
1665946398603745500,55.57174560546875,-0.6945953369140625,-0.692474365234375,-0.1120147705078125
1665946398613826600,55.58182666015625,-0.7038726806640625,-0.6852569580078125,-0.1017303466796875
1665946398623907600,55.59190747070313,-0.6315765380859375,-0.6797027587890625,-0.0658721923828125
1665946398633988400,55.60198828125,-0.662689208984375,-0.6873931884765625,-0.00628662109375
1665946398644069400,55.6120693359375,-0.7850799560546875,-0.6951751708984375,0.0460205078125
1665946398654150400,55.622150390625,-0.844482421875,-0.661102294921875,0.0667266845703125
1665946398664231400,55.6322314453125,-0.8275909423828125,-0.634033203125,0.069091796875
1665946398674313500,55.6423134765625,-0.79638671875,-0.6291046142578125,0.0361785888671875
1665946398684394500,55.65239453125,-0.7772369384765625,-0.640838623046875,-0.0073699951171875
1665946398694475500,55.6624755859375,-0.7622528076171875,-0.6663055419921875,-0.0296478271484375
1665946398704556500,55.672556640625,-0.7545623779296875,-0.6836395263671875,-0.034576416015625
1665946398714637600,55.68263745117188,-0.7486724853515625,-0.6758270263671875,-0.04681396484375
1665946398724718600,55.692718505859375,-0.7489013671875,-0.669281005859375,-0.0556488037109375
1665946398734799400,55.70279931640625,-0.7570037841796875,-0.6707000732421875,-0.0480804443359375
1665946398744881400,55.71288134765625,-0.7520751953125,-0.670806884765625,-0.032623291015625
1665946398754962400,55.72296240234375,-0.74798583984375,-0.675537109375,-0.020477294921875
1665946398765043500,55.73304345703125,-0.7446746826171875,-0.6786346435546875,-0.012054443359375
1665946398775124500,55.74312451171875,-0.7316131591796875,-0.677642822265625,-0.017974853515625
1665946398785205200,55.75320532226562,-0.7446746826171875,-0.6724700927734375,-0.0312347412109375
1665946398795286300,55.763286376953126,-0.7521209716796875,-0.698211669921875,0.0043182373046875
1665946398805367300,55.7733671875,-0.74957275390625,-0.704925537109375,0.0228424072265625
1665946398815449300,55.78344946289062,-0.7449493408203125,-0.7091827392578125,0.056793212890625
1665946398825530000,55.793530029296875,-0.751739501953125,-0.6893768310546875,0.016693115234375
1665946398835611100,55.80361108398437,-0.716064453125,-0.671112060546875,-0.0106353759765625
1665946398845692200,55.813692138671875,-0.69085693359375,-0.6533355712890625,-0.0288543701171875
1665946398855773200,55.82377319335937,-0.67584228515625,-0.682830810546875,-0.0167999267578125
1665946398865854200,55.833854248046876,-0.6796417236328125,-0.7155609130859375,0.0092315673828125
1665946398875935000,55.84393505859375,-0.670501708984375,-0.719146728515625,0.0231475830078125
1665946398886017000,55.85401708984375,-0.65869140625,-0.7093658447265625,0.02606201171875
1665946398896098000,55.86409814453125,-0.6576690673828125,-0.6898956298828125,0.0073699951171875
1665946398906179000,55.87417895507812,-0.6690521240234375,-0.6802825927734375,-0.003936767578125
1665946398916260400,55.88426025390625,-0.6753692626953125,-0.7027435302734375,0.0001678466796875
1665946398926341000,55.89434106445312,-0.678680419921875,-0.7139739990234375,-0.01837158203125
1665946398936422100,55.90442211914063,-0.6676788330078125,-0.721649169921875,-0.006439208984375
1665946398946503200,55.91450317382812,-0.675750732421875,-0.7359466552734375,0.014404296875
1665946398956585200,55.924585205078124,-0.67578125,-0.7315216064453125,0.0143585205078125
1665946398966666200,55.93466625976563,-0.6634674072265625,-0.718719482421875,-0.008514404296875
1665946398976747000,55.9447470703125,-0.6656646728515625,-0.7149810791015625,-0.0106658935546875
1665946398986828000,55.954828125,-0.673187255859375,-0.711700439453125,-0.0064544677734375
1665946398996909000,55.96490893554687,-0.6793975830078125,-0.70391845703125,-0.007476806640625
1665946399006990000,55.97498999023438,-0.691680908203125,-0.7009124755859375,0.0014801025390625
1665946399017072000,55.98507202148438,-0.705474853515625,-0.7040863037109375,0.0279083251953125
1665946399027153200,55.995153076171874,-0.708953857421875,-0.7000732421875,0.0450286865234375
1665946399037234200,56.00523413085938,-0.718963623046875,-0.6873931884765625,0.072265625
1665946399047315200,56.015315185546875,-0.741180419921875,-0.6858367919921875,0.0665130615234375
1665946399057396200,56.02539624023437,-0.7305908203125,-0.70465087890625,0.0465850830078125
1665946399067477200,56.035477294921876,-0.7283172607421875,-0.715240478515625,0.0156097412109375
1665946399077558000,56.04555810546875,-0.7161407470703125,-0.7197265625,-0.01605224609375
1665946399087640000,56.05564013671875,-0.693267822265625,-0.72650146484375,-0.0330047607421875
1665946399097721000,56.06572119140625,-0.69329833984375,-0.736785888671875,-0.0139007568359375
1665946399107802000,56.07580200195312,-0.7117462158203125,-0.73504638671875,0.0125274658203125
1665946399117883100,56.085883056640625,-0.7284698486328125,-0.7162628173828125,0.020050048828125
1665946399127964200,56.09596411132812,-0.742584228515625,-0.7042236328125,0.0247955322265625
1665946399138046200,56.10604614257812,-0.74627685546875,-0.7052459716796875,0.034698486328125
1665946399148127000,56.116126953125,-0.729034423828125,-0.7078399658203125,0.0340118408203125
1665946399158208300,56.12620825195312,-0.715576171875,-0.7169036865234375,0.0218505859375
1665946399168289300,56.13628930664063,-0.7151336669921875,-0.71832275390625,0.0164642333984375
1665946399178370300,56.146370361328124,-0.719573974609375,-0.7191162109375,0.013580322265625
1665946399188451000,56.156451171875,-0.72021484375,-0.72222900390625,0.014312744140625
1665946399198532000,56.16653198242187,-0.7224273681640625,-0.7170257568359375,0.0088958740234375
1665946399208614100,56.1766142578125,-0.7115478515625,-0.7142486572265625,0.0128936767578125
1665946399218695200,56.18669506835938,-0.69775390625,-0.726287841796875,0.018463134765625
1665946399228776200,56.196776123046874,-0.6946258544921875,-0.7265777587890625,0.017547607421875
1665946399238857000,56.20685693359375,-0.6937408447265625,-0.7177886962890625,0.0143585205078125
1665946399248938000,56.21693798828125,-0.6959381103515625,-0.711456298828125,0.007781982421875
1665946399259019300,56.22701928710938,-0.7029266357421875,-0.7142181396484375,0.004638671875
1665946399269101000,56.23710107421875,-0.708404541015625,-0.7164306640625,0.010101318359375
1665946399279182000,56.24718212890625,-0.7041168212890625,-0.7105865478515625,0.010772705078125
1665946399289263400,56.25726342773437,-0.69854736328125,-0.7080841064453125,0.0047149658203125
1665946399299344100,56.26734423828125,-0.706390380859375,-0.707550048828125,0.000762939453125
1665946399309425200,56.27742504882813,-0.7099456787109375,-0.712066650390625,0.0032806396484375
1665946399319507200,56.28750708007812,-0.7032623291015625,-0.716949462890625,0.0065460205078125
1665946399329588200,56.297588134765626,-0.695709228515625,-0.718658447265625,0.0088958740234375
1665946399339669200,56.30766918945312,-0.6938934326171875,-0.7176666259765625,0.01318359375
1665946399349750000,56.31775,-0.7009429931640625,-0.7208099365234375,0.0157470703125
1665946399359831000,56.3278310546875,-0.70794677734375,-0.723602294921875,0.0215911865234375
1665946399369912000,56.337912109375,-0.7023468017578125,-0.726348876953125,0.01995849609375
1665946399379994000,56.347994140625,-0.6944580078125,-0.7303009033203125,0.019073486328125
1665946399390075100,56.3580751953125,-0.700927734375,-0.72900390625,0.022918701171875
1665946399400156200,56.36815625,-0.71044921875,-0.725128173828125,0.0171661376953125
1665946399410237200,56.3782373046875,-0.713714599609375,-0.725311279296875,0.0199737548828125
1665946399420318200,56.38831811523438,-0.7015533447265625,-0.7220306396484375,0.0279541015625
1665946399430399200,56.39839916992187,-0.6907196044921875,-0.718292236328125,0.008026123046875
1665946399440481300,56.408481201171874,-0.7015533447265625,-0.719329833984375,-0.0015411376953125
1665946399450562300,56.41856225585938,-0.71234130859375,-0.7176513671875,0.0015106201171875
1665946399460643000,56.42864306640625,-0.7148590087890625,-0.7180633544921875,0.014007568359375
1665946399470724000,56.43872412109375,-0.7118072509765625,-0.7189483642578125,0.0223541259765625
1665946399480805000,56.44880517578125,-0.7105560302734375,-0.7168731689453125,0.0186614990234375
1665946399490887200,56.45888720703125,-0.7107696533203125,-0.7168121337890625,0.015960693359375
1665946399500968200,56.46896826171875,-0.7109222412109375,-0.727691650390625,0.0116424560546875
1665946399511049000,56.479049072265624,-0.69744873046875,-0.730682373046875,0.019439697265625
1665946399521130000,56.4891298828125,-0.6895599365234375,-0.718292236328125,0.0189208984375
1665946399531211300,56.499211181640625,-0.69873046875,-0.7154388427734375,0.0209503173828125
1665946399541293000,56.50929296875,-0.7109527587890625,-0.718780517578125,0.0146942138671875
1665946399551374000,56.5193740234375,-0.7189483642578125,-0.7261810302734375,0.012115478515625
1665946399561455400,56.529455322265626,-0.7197265625,-0.728759765625,0.01617431640625
1665946399571536100,56.5395361328125,-0.7201995849609375,-0.72235107421875,0.01641845703125
1665946399581617200,56.5496171875,-0.7155609130859375,-0.7217254638671875,0.0225372314453125
1665946399591698200,56.5596982421875,-0.704345703125,-0.720703125,0.0276947021484375
1665946399601780200,56.5697802734375,-0.69647216796875,-0.7190093994140625,0.027862548828125
1665946399611861200,56.579861328125,-0.69708251953125,-0.7196807861328125,0.0256805419921875
1665946399621942000,56.58994189453125,-0.696502685546875,-0.7239227294921875,0.0258941650390625
1665946399632023000,56.60002294921875,-0.6923065185546875,-0.727203369140625,0.0257568359375
1665946399642104000,56.61010400390625,-0.6865997314453125,-0.72943115234375,0.0249481201171875
1665946399652186000,56.62018603515625,-0.687255859375,-0.7296905517578125,0.03057861328125
1665946399662267100,56.63026708984375,-0.6902923583984375,-0.723876953125,0.02899169921875
1665946399672348200,56.64034814453125,-0.68707275390625,-0.7228240966796875,0.0201263427734375
1665946399682429200,56.65042919921875,-0.6900787353515625,-0.720855712890625,0.018402099609375
1665946399692510200,56.66051025390625,-0.695220947265625,-0.718017578125,0.021514892578125
1665946399702592300,56.67059228515625,-0.68829345703125,-0.719696044921875,0.0196685791015625
1665946399712673300,56.68067333984375,-0.6820526123046875,-0.729217529296875,0.014617919921875
1665946399722754300,56.69075439453125,-0.681640625,-0.7287445068359375,0.0226593017578125
1665946399732835000,56.7008349609375,-0.6863555908203125,-0.7211456298828125,0.019775390625
1665946399742916000,56.710916015625,-0.6811981201171875,-0.724273681640625,0.0169219970703125
1665946399752998100,56.720998046875,-0.67340087890625,-0.7311248779296875,0.01519775390625
1665946399763079200,56.7310791015625,-0.675994873046875,-0.731231689453125,0.0158538818359375
1665946399773160200,56.74116015625,-0.685211181640625,-0.7322845458984375,0.01531982421875
1665946399783241700,56.75124169921875,-0.68878173828125,-0.738189697265625,0.0222015380859375
1665946399793322800,56.76132275390625,-0.6888427734375,-0.737884521484375,0.022186279296875
1665946399803404800,56.77140478515625,-0.685791015625,-0.7342681884765625,0.0202178955078125
1665946399813485800,56.78148583984375,-0.68328857421875,-0.7347412109375,0.0221405029296875
1665946399823566800,56.79156689453125,-0.68414306640625,-0.734161376953125,0.0236053466796875
1665946399833647900,56.80164794921875,-0.6896209716796875,-0.73394775390625,0.02777099609375
1665946399843730000,56.81172998046875,-0.69091796875,-0.7343597412109375,0.02618408203125
1665946399853810700,56.82181079101562,-0.68414306640625,-0.7342987060546875,0.0231475830078125
1665946399863891700,56.8318916015625,-0.6791534423828125,-0.7334747314453125,0.0225372314453125
1665946399873973000,56.84197290039062,-0.6798553466796875,-0.732666015625,0.025634765625
1665946399884054000,56.85205395507813,-0.6815338134765625,-0.73040771484375,0.032196044921875
1665946399894136000,56.86213598632813,-0.6770477294921875,-0.7262725830078125,0.0328369140625
1665946399904216800,56.872216796875,-0.6878509521484375,-0.7354736328125,0.02154541015625
1665946399914297900,56.8822978515625,-0.6970672607421875,-0.7482147216796875,0.0354156494140625
1665946399924379000,56.89237890625,-0.7030181884765625,-0.743621826171875,0.0366973876953125
1665946399934460000,56.9024599609375,-0.6981201171875,-0.73736572265625,0.0384674072265625
1665946399944542000,56.9125419921875,-0.682464599609375,-0.7335968017578125,0.0386505126953125
1665946399954622700,56.922622802734374,-0.671661376953125,-0.7314605712890625,0.0343170166015625
1665946399964703700,56.93270385742188,-0.6638336181640625,-0.731536865234375,0.03619384765625
1665946399974784800,56.94278466796875,-0.6669464111328125,-0.733642578125,0.0373687744140625
1665946399984866800,56.95286669921875,-0.6791229248046875,-0.7357025146484375,0.032623291015625
1665946399994947800,56.96294775390625,-0.685821533203125,-0.733856201171875,0.02838134765625
1665946400005028900,56.97302880859375,-0.688201904296875,-0.729156494140625,0.0302276611328125
1665946400015110000,56.98310986328125,-0.691375732421875,-0.7256317138671875,0.0348663330078125
1665946400025191000,56.99319091796875,-0.687591552734375,-0.7251739501953125,0.03515625
1665946400035273000,57.00327294921875,-0.683837890625,-0.7269287109375,0.032684326171875
1665946400045354000,57.01335400390625,-0.6803741455078125,-0.7294769287109375,0.030364990234375
1665946400055435000,57.02343505859375,-0.6784515380859375,-0.726593017578125,0.0398101806640625
1665946400065515800,57.03351586914062,-0.67779541015625,-0.72430419921875,0.0381622314453125
1665946400075596800,57.0435966796875,-0.68243408203125,-0.73553466796875,0.0334625244140625
1665946400085678800,57.05367895507813,-0.685028076171875,-0.7423248291015625,0.035675048828125
1665946400095760000,57.063759765625,-0.6847686767578125,-0.73590087890625,0.0356903076171875
1665946400105841000,57.0738408203125,-0.6725616455078125,-0.7348175048828125,0.040313720703125
1665946400115922000,57.083921875,-0.6590118408203125,-0.74053955078125,0.04541015625
1665946400126003700,57.09400366210937,-0.6601409912109375,-0.7425689697265625,0.0431976318359375
1665946400136084700,57.104084716796876,-0.6688385009765625,-0.738067626953125,0.0420989990234375
1665946400146165800,57.11416577148437,-0.6752471923828125,-0.73876953125,0.045684814453125
1665946400156246800,57.12424682617188,-0.6778564453125,-0.739410400390625,0.0451812744140625
1665946400166328800,57.13432885742188,-0.67547607421875,-0.7349700927734375,0.04632568359375
1665946400176409900,57.144409912109374,-0.6757049560546875,-0.7339630126953125,0.0479278564453125
1665946400186491000,57.15449096679688,-0.677032470703125,-0.735626220703125,0.047393798828125
1665946400196572000,57.164572021484375,-0.678253173828125,-0.739776611328125,0.042877197265625
1665946400206653000,57.17465283203125,-0.677490234375,-0.7409820556640625,0.0426025390625
1665946400216735000,57.18473486328125,-0.6764373779296875,-0.7389678955078125,0.0487518310546875
1665946400226816000,57.19481591796875,-0.6714935302734375,-0.7350006103515625,0.0486907958984375
1665946400236896800,57.20489672851563,-0.674652099609375,-0.7328338623046875,0.044647216796875
1665946400246977800,57.214977783203125,-0.679901123046875,-0.7371826171875,0.0418548583984375
1665946400257059800,57.225059814453125,-0.6856689453125,-0.735992431640625,0.0390777587890625
1665946400267140900,57.23514086914062,-0.6936492919921875,-0.7334747314453125,0.0419921875
1665946400277222000,57.245221923828126,-0.694610595703125,-0.7346343994140625,0.0440673828125
1665946400287303000,57.25530297851562,-0.69256591796875,-0.73394775390625,0.0428466796875
1665946400297384700,57.265384765625,-0.6899566650390625,-0.73431396484375,0.039886474609375
1665946400307465700,57.2754658203125,-0.6847991943359375,-0.7360382080078125,0.042694091796875
1665946400317546800,57.28554663085937,-0.6826171875,-0.736114501953125,0.04693603515625
1665946400327627800,57.295627685546876,-0.6846771240234375,-0.732452392578125,0.0489501953125
1665946400337709000,57.305708984375,-0.684051513671875,-0.7334747314453125,0.04730224609375
1665946400347790800,57.31579077148437,-0.6787261962890625,-0.74237060546875,0.047119140625
1665946400357871900,57.32587182617188,-0.6826324462890625,-0.747406005859375,0.0491790771484375
1665946400367953000,57.335952880859374,-0.6891021728515625,-0.7433319091796875,0.048675537109375
1665946400378034000,57.34603393554688,-0.69244384765625,-0.74237060546875,0.049835205078125
1665946400388116000,57.35611596679688,-0.697845458984375,-0.740936279296875,0.053009033203125
1665946400398197000,57.366197021484375,-0.69378662109375,-0.7388763427734375,0.0546417236328125
1665946400408277800,57.37627783203125,-0.6848297119140625,-0.73876953125,0.0528106689453125
1665946400418358800,57.38635888671875,-0.678314208984375,-0.738677978515625,0.0495452880859375
1665946400428440800,57.39644091796875,-0.6779937744140625,-0.7404937744140625,0.0500640869140625
1665946400438521900,57.40652197265625,-0.681915283203125,-0.741607666015625,0.0506591796875
1665946400448603000,57.416602783203125,-0.6841583251953125,-0.7430419921875,0.0478973388671875
1665946400458684000,57.42668383789062,-0.681854248046875,-0.736846923828125,0.041748046875
1665946400468766000,57.43676586914062,-0.68402099609375,-0.732269287109375,0.0432586669921875
1665946400478846700,57.4468466796875,-0.6768798828125,-0.7292327880859375,0.0472412109375
1665946400488927700,57.456927734375,-0.664581298828125,-0.727874755859375,0.055328369140625
1665946400499008800,57.4670087890625,-0.63653564453125,-0.733917236328125,0.060333251953125
1665946400509090800,57.4770908203125,-0.6360321044921875,-0.74139404296875,0.08013916015625
1665946400519171800,57.487171875,-0.625762939453125,-0.7432708740234375,0.088531494140625
1665946400529252900,57.4972529296875,-0.6066131591796875,-0.7594757080078125,0.0851287841796875
1665946400539334000,57.507333984375,-0.6254730224609375,-0.759979248046875,0.0718231201171875
1665946400549416000,57.517416015625,-0.6497039794921875,-0.7506561279296875,0.055206298828125
1665946400559497000,57.5274970703125,-0.6636505126953125,-0.735137939453125,0.04962158203125
1665946400569578000,57.537577880859374,-0.6753997802734375,-0.7224578857421875,0.055267333984375
1665946400579658800,57.54765869140625,-0.677520751953125,-0.7193603515625,0.0615997314453125
