time,seconds_elapsed,z,y,x
1665946343046039000,0.0140390625,0.5222504138946533,-0.3494908809661865,-0.0444050133228302
1665946343056121000,0.02412109375,0.47104766964912415,-0.3110923767089844,-0.05138516053557396
1665946343066203100,0.034203125,0.37298449873924255,-0.11664565652608871,-0.14597265422344208
1665946343076284200,0.0442841796875,0.36032089591026306,-0.01750069670379162,-0.11416332423686981
1665946343086366200,0.0543662109375,0.30741241574287415,0.17949679493904114,-0.08058352768421173
1665946343096448300,0.0644482421875,0.24020035564899445,0.32558953762054443,-0.10037054866552353
1665946343106530300,0.0745302734375,0.28023990988731384,0.4141188859939575,-0.18168777227401733
1665946343116612000,0.084612060546875,0.3633023202419281,0.5019614100456238,-0.2939160466194153
1665946343126693000,0.094693115234375,0.4347309470176697,0.6839335560798645,-0.42641496658325195
1665946343136775000,0.10477490234375,0.4582621157169342,0.9583954811096191,-0.5556589961051941
1665946343146857000,0.11485693359375,0.430450439453125,1.169262170791626,-0.6362435817718506
1665946343156939000,0.12493896484375,0.39544132351875305,1.2247883081436157,-0.667823851108551
1665946343167021000,0.13502099609375,0.38055744767189026,1.0125007629394531,-0.6204041242599487
1665946343177102000,0.14510205078125,0.3707309365272522,0.7060596346855164,-0.5097852349281311
1665946343187184000,0.15518408203125,0.4949601888656616,0.48265108466148376,-0.4088948369026184
1665946343197266200,0.16526611328125,0.5847577452659607,0.35030341148376465,-0.38648298382759094
1665946343207348200,0.17534814453125,0.5480202436447144,0.13697250187397003,-0.4235352873802185
1665946343217430000,0.185429931640625,0.38160115480422974,-0.2692621052265167,-0.42884936928749084
1665946343227511000,0.195510986328125,0.22733168303966522,-0.659391462802887,-0.3684195578098297
1665946343237593000,0.205593017578125,0.17214833199977875,-0.9475071430206299,-0.26493126153945923
1665946343247675100,0.215675048828125,0.07107923924922943,-1.1299877166748047,-0.11183784902095795
1665946343257757200,0.225757080078125,-0.08713597059249878,-1.196371078491211,0.07610728591680527
1665946343267839200,0.235839111328125,-0.2498345971107483,-1.0005879402160645,0.2728118300437927
1665946343277920000,0.245919921875,-0.35314953327178955,-0.6589874625205994,0.40652409195899963
1665946343288002000,0.256001953125,-0.36200347542762756,-0.3424055576324463,0.42748022079467773
1665946343298084000,0.266083984375,-0.33203333616256714,-0.10381907224655151,0.3833519220352173
1665946343308166100,0.276166259765625,-0.29512616991996765,0.11900494992733002,0.3549477159976959
1665946343318248000,0.286248046875,-0.2726227343082428,0.2781282961368561,0.3588486909866333
1665946343328329000,0.296328857421875,-0.3109046220779419,0.1769188493490219,0.33526429533958435
1665946343338411000,0.306410888671875,-0.3242957890033722,-0.09424367547035217,0.31538617610931396
1665946343348493000,0.3164931640625,-0.2652268707752228,-0.3093264102935791,0.27793362736701965
1665946343358575000,0.3265751953125,-0.2793096601963043,-0.5024527311325073,0.15362471342086792
1665946343368656600,0.33665673828125,-0.19018085300922394,-0.523387610912323,-0.06293661892414093
1665946343378738400,0.346738525390625,0.03918548673391342,-0.5432238578796387,-0.3027481436729431
1665946343388819500,0.3568193359375,0.2633352279663086,-0.5538778305053711,-0.5115612745285034
1665946343398901500,0.366901611328125,0.34009793400764465,-0.6203612685203552,-0.6435669660568237
1665946343408983600,0.376983642578125,0.2990120053291321,-0.7732506990432739,-0.7011181712150574
1665946343419065600,0.387065673828125,0.2475046068429947,-0.7027650475502014,-0.6081399917602539
1665946343429147400,0.3971474609375,0.1598687618970871,-0.7248464226722717,-0.5043166875839233
1665946343439228400,0.407228515625,0.07370644807815552,-0.6059421300888062,-0.4240649938583374
1665946343449310500,0.417310546875,0.03693751245737076,-0.5566486120223999,-0.3288383483886719
1665946343459392500,0.427392578125,0.05128182843327522,-0.5096994638442993,-0.15556110441684723
1665946343469474600,0.437474609375,0.027895281091332436,-0.5382344126701355,0.1277233362197876
1665946343479556600,0.447556640625,-0.17007479071617126,-0.7605149149894714,0.4177871346473694
1665946343489637600,0.4576376953125,-0.48941123485565186,-1.145326018333435,0.6230065822601318
1665946343499719700,0.4677197265625,-0.8421386480331421,-1.4636435508728027,0.6578314304351807
1665946343509801700,0.4778017578125,-1.0947027206420898,-1.4890402555465698,0.606772780418396
1665946343519883500,0.487883544921875,-1.1719778776168823,-1.3856778144836426,0.5194604992866516
1665946343529965600,0.497965576171875,-1.108285903930664,-1.3313014507293701,0.3758852183818817
1665946343540046300,0.50804638671875,-1.0140448808670044,-1.2902411222457886,0.20794600248336792
1665946343550128400,0.51812841796875,-0.9451806545257568,-1.2440400123596191,0.042810313403606415
1665946343560210400,0.52821044921875,-0.8678269982337952,-1.1335396766662598,-0.07119321823120117
1665946343570292500,0.53829248046875,-0.8510083556175232,-1.1349936723709106,-0.1281457245349884
1665946343580374500,0.54837451171875,-0.8977633118629456,-1.289040207862854,-0.14306208491325378
1665946343590455600,0.55845556640625,-0.9493277072906494,-1.3582944869995117,-0.1652992069721222
1665946343600537600,0.56853759765625,-0.9065067172050476,-1.1840240955352783,-0.2381204217672348
1665946343610619600,0.57861962890625,-0.5427721738815308,-0.8875657916069031,-0.35245126485824585
1665946343620701400,0.588701416015625,-0.003150519449263811,-0.5992873907089233,-0.529518187046051
1665946343630783500,0.598783447265625,0.27021336555480957,-0.2983821630477905,-0.7528841495513916
1665946343640864500,0.608864501953125,0.2971576452255249,-0.11020959168672562,-0.915072500705719
1665946343650946600,0.618946533203125,0.12276160717010498,-0.010467021726071835,-0.9794520735740662
1665946343661028600,0.629028564453125,-0.16273431479930878,0.050517503172159195,-1.0286893844604492
1665946343671110700,0.639110595703125,-0.4034031331539154,-0.1645583212375641,-1.1043468713760376
1665946343681192700,0.649192626953125,-0.5799357891082764,-0.5448039174079895,-1.2197762727737427
1665946343691273500,0.6592734375,-0.665433406829834,-0.7345581650733948,-1.3545873165130615
1665946343701355500,0.66935546875,-0.6901193261146545,-0.6230979561805725,-1.3806750774383545
1665946343711437600,0.6794375,-0.7017807364463806,-0.3461182713508606,-1.2342792749404907
1665946343721519400,0.689519287109375,-0.6435624361038208,-0.005857090000063181,-0.9860960841178894
1665946343731601400,0.699601318359375,-0.45997264981269836,0.1502009481191635,-0.7607995867729187
1665946343741682400,0.709682373046875,-0.15900883078575134,0.07602819055318832,-0.6368632912635803
1665946343751764500,0.719764404296875,0.35501882433891296,0.06017039716243744,-0.6092654466629028
1665946343761846500,0.729846435546875,0.6693397164344788,0.1389371156692505,-0.6138938069343567
1665946343771928600,0.739928466796875,0.5332985520362854,0.16104747354984283,-0.6721839904785156
1665946343782010600,0.7500107421875,0.24470828473567963,0.05065625160932541,-0.7582107186317444
1665946343792092700,0.7600927734375,0.05842496082186699,-0.08498866111040115,-0.8027476072311401
1665946343802173700,0.770173583984375,-0.002885801251977682,-0.13233007490634918,-0.7474880814552307
1665946343812255700,0.780255859375,0.01888900250196457,-0.083160400390625,-0.6366446614265442
1665946343822337500,0.790337646484375,0.04761838540434837,0.04811932519078255,-0.5232304334640503
1665946343832419600,0.800419677734375,0.053594786673784256,0.2103463113307953,-0.37967783212661743
1665946343842501600,0.810501708984375,0.0009315737406723201,0.22811466455459595,-0.25291162729263306
1665946343852582400,0.82058251953125,-0.09361623972654343,0.15446627140045166,-0.13753336668014526
1665946343862664400,0.83066455078125,-0.1562149077653885,0.05201286822557449,-0.030192257836461067
1665946343872746500,0.84074658203125,-0.1578942984342575,-0.08013744652271271,0.06172062084078789
1665946343882828500,0.85082861328125,-0.19590425491333008,-0.25502005219459534,0.11513324826955795
1665946343892910600,0.86091064453125,-0.2658820152282715,-0.4461897313594818,0.12835557758808136
1665946343902991600,0.87099169921875,-0.31994205713272095,-0.5688186883926392,0.12128914147615433
1665946343913073700,0.88107373046875,-0.3714800775051117,-0.5755661129951477,0.12548255920410156
1665946343923155500,0.891155517578125,-0.39271053671836853,-0.5409373044967651,0.1262655258178711
1665946343933237500,0.901237548828125,-0.38724571466445923,-0.5415186285972595,0.1186925619840622
1665946343943319600,0.911319580078125,-0.3564971387386322,-0.5317102074623108,0.10256099700927734
1665946343953400600,0.921400634765625,-0.2858847379684448,-0.469043105840683,0.07319218665361404
1665946343963482600,0.931482666015625,-0.19355188310146332,-0.3947009742259979,0.02448616735637188
1665946343973564700,0.941564697265625,-0.1610429435968399,-0.42885521054267883,-0.044795166701078415
1665946343983646700,0.951646728515625,-0.17872820794582367,-0.4596711993217468,-0.08876129239797592
1665946343993728500,0.961728515625,-0.17207962274551392,-0.3722904622554779,-0.05342221260070801
1665946344003809500,0.9718095703125,-0.11712555587291718,-0.27361875772476196,0.014664430171251297
1665946344013891600,0.9818916015625,-0.052084241062402725,-0.2624737024307251,0.06899744272232056
1665946344023973400,0.991973388671875,-0.02105947956442833,-0.308732807636261,0.10857148468494415
1665946344034055400,1.002055419921875,-0.022973492741584778,-0.3982464373111725,0.1301710456609726
1665946344044137500,1.012137451171875,-0.020178770646452904,-0.5100619196891785,0.11142133176326752
1665946344054218500,1.022218505859375,0.008386560715734959,-0.5670285224914551,0.08386320620775223
1665946344064300500,1.032300537109375,0.06968241184949875,-0.513309121131897,0.054427288472652435
1665946344074382600,1.042382568359375,0.11414042115211487,-0.42256295680999756,0.026215357705950737
1665946344084464600,1.052464599609375,0.12823520600795746,-0.2801714539527893,0.007148456759750843
1665946344094546400,1.06254638671875,0.10960213094949722,-0.1711890548467636,-0.02857598476111889
1665946344104627700,1.072627685546875,0.07573896646499634,-0.1847812980413437,-0.0846235379576683
1665946344114709500,1.08270947265625,0.03850904107093811,-0.18055859208106995,-0.1315188705921173
1665946344124791600,1.09279150390625,0.05452049896121025,-0.12461010366678238,-0.14072516560554504
1665946344134873600,1.10287353515625,0.10698743909597397,-0.08130444586277008,-0.10935844480991364
1665946344144955600,1.11295556640625,0.13362383842468262,-0.060687847435474396,-0.049743056297302246
1665946344155037400,1.123037353515625,0.16140326857566833,-0.03760064020752907,0.005915945861488581
1665946344165118500,1.133118408203125,0.1923428177833557,-0.10109865665435791,0.04496427997946739
1665946344175200500,1.143200439453125,0.173323854804039,-0.19330421090126038,0.042696330696344376
1665946344185282600,1.153282470703125,0.12852121889591217,-0.21327446401119232,0.009940248914062977
1665946344195364400,1.1633642578125,0.1170070469379425,-0.15778855979442596,-0.06391799449920654
1665946344205446400,1.1734462890625,0.1330307573080063,-0.02671097218990326,-0.16237106919288635
1665946344215527400,1.18352734375,0.15536855161190033,0.08547495305538177,-0.2542405426502228
1665946344225609500,1.193609375,0.1776578724384308,0.13391439616680145,-0.29587453603744507
1665946344235691500,1.20369140625,0.19526830315589905,0.0838719978928566,-0.24901914596557617
1665946344245773600,1.213773681640625,0.16271407902240753,0.0020743361674249172,-0.102522112429142
1665946344255855600,1.223855712890625,0.12472142279148102,-0.07426784187555313,0.11004447937011719
1665946344265936600,1.2339365234375,0.13566195964813232,-0.18482311069965363,0.3008570373058319
1665946344276018700,1.244018798828125,0.18839120864868164,-0.2943671941757202,0.4034571945667267
1665946344286100700,1.254100830078125,0.2817707061767578,-0.4147695004940033,0.4177929759025574
1665946344296182500,1.2641826171875,0.3021627962589264,-0.38866493105888367,0.39859825372695923
1665946344306264600,1.2742646484375,0.2673629820346832,-0.30695435404777527,0.37904027104377747
1665946344316345300,1.284345458984375,0.2726597487926483,-0.2944028675556183,0.3972240686416626
1665946344326427400,1.294427490234375,0.2928372025489807,-0.33035847544670105,0.44870615005493164
1665946344336509400,1.304509521484375,0.3185596168041229,-0.23220953345298767,0.4790582060813904
1665946344346591500,1.314591552734375,0.3797401487827301,-0.14137576520442963,0.41366374492645264
1665946344356673500,1.324673583984375,0.4172550141811371,-0.073428675532341,0.31681203842163086
1665946344366754600,1.334754638671875,0.37147343158721924,0.05764598399400711,0.21866390109062195
1665946344376837400,1.34483740234375,0.29505428671836853,0.18475280702114105,0.06950051337480545
1665946344386919400,1.35491943359375,0.23470252752304077,0.19892455637454987,-0.09433502703905106
1665946344397001500,1.36500146484375,0.16046397387981415,0.11511939764022827,-0.23362180590629578
1665946344407083500,1.37508349609375,0.06636224687099457,-0.01709696091711521,-0.30014756321907043
1665946344417165600,1.38516552734375,0.010909639298915863,-0.1174110472202301,-0.254336416721344
1665946344427246600,1.39524658203125,0.037217143923044205,-0.27145999670028687,-0.19959859549999237
1665946344437328600,1.40532861328125,0.05407894775271416,-0.43910759687423706,-0.1569874882698059
1665946344447410700,1.41541064453125,0.06310732662677765,-0.5093969106674194,-0.1354004293680191
1665946344457492500,1.425492431640625,0.12839259207248688,-0.4644899070262909,-0.1568218320608139
1665946344467574500,1.435574462890625,0.22706404328346252,-0.24047066271305084,-0.2179459184408188
1665946344477655600,1.445655517578125,0.2674684524536133,-0.07497437298297882,-0.2528138756752014
1665946344487737600,1.455737548828125,0.2178974449634552,-0.059294749051332474,-0.24158306419849396
1665946344497819600,1.465819580078125,0.1451105922460556,-0.02773415856063366,-0.2262863963842392
1665946344507901700,1.475901611328125,0.07134714722633362,0.047022636979818344,-0.24485395848751068
1665946344517983700,1.485983642578125,0.031496405601501465,0.18124009668827057,-0.2752326428890228
1665946344528064500,1.496064453125,0.03910399228334427,0.305223286151886,-0.27805185317993164
1665946344538146600,1.506146484375,0.0765397846698761,0.32174208760261536,-0.22413429617881775
1665946344548228600,1.516228515625,0.14758412539958954,0.11856686323881149,-0.14158695936203003
1665946344558310400,1.526310302734375,0.18918830156326294,-0.1913830041885376,-0.015517706982791424
1665946344568392400,1.536392333984375,0.23467588424682617,-0.49662360548973083,0.16566699743270874
1665946344578473500,1.546473388671875,0.3619621992111206,-0.7692407369613647,0.3388480842113495
1665946344588555500,1.556555419921875,0.5522552132606506,-1.054111361503601,0.40205129981040955
1665946344598637600,1.566637451171875,0.7492337822914124,-1.5258573293685913,0.2545068562030792
1665946344608719600,1.5767197265625,0.9635652303695679,-2.125868558883667,-0.07749825716018677
1665946344618801700,1.5868017578125,1.1071114540100098,-2.4020402431488037,-0.3868931233882904
1665946344628882700,1.596882568359375,1.1113754510879517,-2.5211892127990723,-0.5618356466293335
1665946344638964700,1.60696484375,1.0795775651931763,-2.8303470611572266,-0.5592371821403503
1665946344649046800,1.617046875,1.0428261756896973,-3.6862635612487793,-0.19307518005371094
1665946344659128600,1.627128662109375,0.9407445788383484,-4.269698619842529,0.5011928081512451
1665946344669210600,1.637210693359375,0.8868366479873657,-4.255052089691162,1.160275936126709
1665946344679291400,1.64729150390625,0.9351503849029541,-4.441339015960693,1.761905312538147
1665946344689373400,1.65737353515625,1.0748704671859741,-5.151637077331543,2.2694010734558105
1665946344699455500,1.66745556640625,1.2990819215774536,-5.906508445739746,2.4565088748931885
1665946344709537500,1.67753759765625,1.456183671951294,-6.181600570678711,2.0066630840301514
1665946344719619600,1.68761962890625,1.3471927642822266,-6.43590784072876,1.273401141166687
1665946344729701600,1.69770166015625,1.1082649230957031,-6.87652587890625,0.32277458906173706
1665946344739782700,1.70778271484375,0.7563947439193726,-7.231539726257324,-0.7140078544616699
1665946344749864700,1.71786474609375,0.37831881642341614,-7.180828094482422,-1.7300491333007812
1665946344759946500,1.727946533203125,0.11271536350250244,-6.834826946258545,-2.3932769298553467
1665946344770028500,1.738028564453125,-0.05072522908449173,-6.324770450592041,-2.559157133102417
1665946344780109600,1.748109619140625,-0.04380900040268898,-5.659841537475586,-2.2936339378356934
1665946344790191600,1.758191650390625,0.10916963219642639,-4.579588413238525,-1.8691555261611938
1665946344800273700,1.768273681640625,0.3258289694786072,-3.544753313064575,-1.3260267972946167
1665946344810355700,1.778355712890625,0.3834150433540344,-2.629821300506592,-0.7788025736808777
1665946344820437800,1.788437744140625,0.24610698223114014,-1.8606680631637573,-0.44094622135162354
1665946344830519600,1.79851953125,0.09890980273485184,-1.2800827026367188,-0.25363174080848694
1665946344840600600,1.8086005859375,0.0581304132938385,-0.7938579320907593,-0.25611433386802673
1665946344850682600,1.8186826171875,0.04007577896118164,-0.5243162512779236,-0.5111343860626221
1665946344860764400,1.828764404296875,-0.07548996061086655,-0.5229172706604004,-0.95309978723526
1665946344870846500,1.838846435546875,-0.28734761476516724,-0.6949236392974854,-1.4886380434036255
1665946344880927500,1.848927490234375,-0.4108501076698303,-0.9783596396446228,-1.9743142127990723
1665946344891009500,1.859009521484375,-0.3454221189022064,-1.427241563796997,-2.2271533012390137
1665946344901091600,1.869091552734375,-0.18975794315338135,-1.930323600769043,-2.2262213230133057
1665946344911173600,1.879173583984375,-0.14758865535259247,-2.2419278621673584,-2.0873677730560303
1665946344921255700,1.889255615234375,-0.29089629650115967,-2.434380292892456,-1.83176589012146
1665946344931336700,1.899336669921875,-0.5926481485366821,-2.67268967628479,-1.521240472793579
1665946344941418800,1.909418701171875,-1.1176823377609253,-2.7959351539611816,-1.3422763347625732
1665946344951500500,1.91950048828125,-1.659985899925232,-2.5272459983825684,-1.3115143775939941
1665946344961582600,1.92958251953125,-1.8018649816513062,-2.413848876953125,-1.251672625541687
1665946344971664600,1.93966455078125,-1.6099681854248047,-2.6697301864624023,-1.1458346843719482
1665946344981745700,1.94974560546875,-1.476171851158142,-2.974539041519165,-1.1082416772842407
1665946344991827500,1.959827392578125,-1.5880848169326782,-3.4815752506256104,-1.225213885307312
1665946345001909500,1.969909423828125,-1.995766520500183,-4.256093978881836,-1.505157709121704
1665946345011991600,1.979991455078125,-1.7681258916854858,-4.91840934753418,-1.8247960805892944
1665946345022073600,1.990073486328125,-0.4671701192855835,-4.228671073913574,-2.136367082595825
1665946345032154600,2.000154541015625,0.9542036652565002,-2.9325709342956543,-2.4127938747406006
1665946345042236700,2.010236572265625,2.295483112335205,-2.151059150695801,-2.483672857284546
1665946345052318500,2.020318359375,2.7379074096679688,-2.2410271167755127,-2.5703303813934326
1665946345062400500,2.030400390625,2.3246097564697266,-3.477332830429077,-3.2631592750549316
1665946345072482600,2.040482666015625,1.3014689683914185,-4.461788654327393,-4.279662609100342
1665946345082563600,2.0505634765625,-0.07803727686405182,-4.626391410827637,-5.101019859313965
1665946345092645600,2.060645751953125,-1.4580460786819458,-4.979718208312988,-5.386280059814453
1665946345102727700,2.070727783203125,-3.0448811054229736,-4.3002028465271,-5.340789318084717
1665946345112809700,2.080809814453125,-4.126326560974121,-3.624830484390259,-4.553225994110107
1665946345122891800,2.090891845703125,-4.753705024719238,-2.9972336292266846,-4.072383880615234
1665946345132972800,2.100972900390625,-4.777079105377197,-2.4283382892608643,-4.024842739105225
1665946345143054800,2.111054931640625,-4.117778778076172,-2.3356378078460693,-4.032186508178711
1665946345153136400,2.121136474609375,-2.706104278564453,-2.3954126834869385,-3.712867498397827
1665946345163218400,2.131218505859375,-0.8282982110977173,-2.025620222091675,-2.6352460384368896
1665946345173300500,2.141300537109375,0.4914296567440033,-1.160372018814087,-0.8726222515106201
1665946345183381500,2.151381591796875,0.7201184630393982,-1.011055827140808,-0.07574748992919922
1665946345193463600,2.161463623046875,0.5174804329872131,-1.1378728151321411,-0.5472135543823242
1665946345203545600,2.171545654296875,-0.0535588338971138,-0.9583803415298462,-0.9778578877449036
1665946345213627600,2.181627685546875,-0.6138940453529358,-0.5130071043968201,-1.1176940202713013
1665946345223708700,2.191708740234375,-0.956087052822113,0.14949734508991241,-1.0048860311508179
1665946345233790700,2.201790771484375,-1.1373854875564575,0.38034945726394653,-0.7521637678146362
1665946345243872800,2.211872802734375,-1.355088233947754,0.10476475954055786,-0.5434017777442932
1665946345253954600,2.22195458984375,-1.659562349319458,-0.8960596919059753,-0.563439130783081
1665946345264035600,2.23203564453125,-1.914943814277649,-3.1501119136810303,-0.8344653248786926
1665946345274117600,2.24211767578125,-2.054673433303833,-6.719449996948242,-1.8014297485351562
1665946345284199700,2.25219970703125,-2.0701944828033447,-10.60871410369873,-3.298332691192627
1665946345294281700,2.26228173828125,-1.7469401359558105,-13.358017921447754,-4.840154647827148
1665946345304363500,2.272363525390625,-1.3189395666122437,-15.213109016418457,-6.031661510467529
1665946345314444500,2.282444580078125,-0.9972339868545532,-15.473289489746094,-6.786249160766602
1665946345324526600,2.292526611328125,-1.3477799892425537,-8.21103572845459,-3.9348256587982178
1665946345334608600,2.302608642578125,-0.6887845396995544,1.8204983472824097,-1.4969061613082886
1665946345344690700,2.312690673828125,-0.46184271574020386,6.892770767211914,-0.57599937915802
1665946345354772500,2.3227724609375,-0.06136242672801018,6.542567729949951,-0.9498203992843628
1665946345364853500,2.332853515625,0.10529952496290207,4.746645927429199,-2.059579610824585
1665946345374935600,2.342935546875,0.03891117870807648,3.484295606613159,-3.245806932449341
1665946345385017600,2.353017578125,-0.23570813238620758,2.7007596492767334,-4.1533122062683105
1665946345395099600,2.363099609375,-0.619405210018158,1.8748542070388794,-4.727644443511963
1665946345405180700,2.3731806640625,-1.0922752618789673,0.7417721152305603,-5.013620376586914
1665946345415262700,2.3832626953125,-1.500190019607544,-0.6662706732749939,-4.853156089782715
1665946345425344800,2.3933447265625,-1.6576180458068848,-1.5454283952713013,-3.240556240081787
1665946345435426800,2.4034267578125,-1.6107174158096313,-1.2180973291397095,-0.7304102778434753
1665946345445508600,2.413508544921875,-1.5828934907913208,-1.2723790407180786,0.04676564037799835
1665946345455590000,2.42358984375,-1.4901936054229736,-1.7961444854736328,-0.9317489862442017
1665946345465671700,2.433671630859375,-1.2545456886291504,-2.318350315093994,-2.841759204864502
1665946345475753700,2.443753662109375,-0.9606999158859253,-2.076059103012085,-4.277547836303711
1665946345485835800,2.453835693359375,-0.685759425163269,-0.5420539379119873,-4.417837142944336
1665946345495916800,2.463916748046875,-0.31014108657836914,0.76884925365448,-3.105803966522217
1665946345505998600,2.47399853515625,0.18564070761203766,1.113824725151062,-1.1955928802490234
1665946345516080600,2.48408056640625,0.7108184695243835,0.965348482131958,0.2210269272327423
1665946345526162700,2.49416259765625,1.0137189626693726,0.6876886487007141,0.6911776661872864
1665946345536244700,2.50424462890625,0.9331071972846985,0.326256662607193,0.3262063264846802
1665946345546325800,2.51432568359375,0.5619887709617615,-0.17523173987865448,-0.36902278661727905
1665946345556407800,2.52440771484375,0.21443027257919312,-0.3159465193748474,-0.9060513377189636
1665946345566489600,2.534489501953125,0.2433048039674759,0.1437648981809616,-1.2302818298339844
1665946345576571600,2.544571533203125,0.2108834683895111,1.3186421394348145,-1.3506032228469849
1665946345586652700,2.554652587890625,0.17791567742824554,1.8233894109725952,-1.2339032888412476
1665946345596734700,2.564734619140625,-0.38298332691192627,0.7995296716690063,-1.9049173593521118
1665946345606816800,2.574816650390625,-0.4342460036277771,1.1711626052856445,-1.361441969871521
1665946345616898800,2.58489892578125,0.11457718163728714,1.3924872875213623,-1.0583865642547607
1665946345626980900,2.59498095703125,0.4244338274002075,1.90619695186615,-1.0948973894119263
1665946345637062000,2.605061767578125,0.673869252204895,2.314316511154175,-0.8763033151626587
1665946345647144000,2.61514404296875,0.8641694188117981,2.4936087131500244,-0.47450393438339233
1665946345657225700,2.625225830078125,0.8125061988830566,2.456254720687866,-0.0852496474981308
1665946345667307500,2.6353076171875,0.6460325121879578,1.812412977218628,0.22000107169151306
1665946345677388500,2.645388427734375,0.41239580512046814,0.9580857753753662,0.34308865666389465
1665946345687470600,2.655470703125,0.20124895870685577,0.46066373586654663,0.5474196672439575
1665946345697552600,2.665552734375,-0.011455054394900799,0.40664738416671753,0.4615851938724518
1665946345707634700,2.675634765625,-0.13011512160301208,0.34135040640830994,0.40632355213165283
1665946345717715700,2.6857158203125,-0.10855017602443695,0.5491089224815369,0.37264493107795715
1665946345727797800,2.6957978515625,-0.7787788510322571,1.5477919578552246,0.3023641109466553
1665946345737879800,2.7058798828125,-2.82357120513916,2.5182430744171143,-0.4595838487148285
1665946345747961900,2.7159619140625,-3.012593984603882,3.354377508163452,-0.7490646243095398
1665946345758043600,2.726043701171875,-2.1905219554901123,2.8823437690734863,0.08392925560474396
1665946345768125000,2.736125,-1.5635123252868652,1.9892468452453613,0.7273939847946167
1665946345778206700,2.746206787109375,-1.131006121635437,1.7441030740737915,1.3210607767105103
1665946345788288800,2.756288818359375,-0.6131294369697571,1.722102165222168,1.642526388168335
1665946345798370800,2.766370849609375,-0.11364853382110596,1.9918663501739502,1.638181209564209
1665946345808451600,2.77645166015625,0.5655733942985535,1.7235459089279175,1.9424734115600586
1665946345818533600,2.78653369140625,0.8746758103370667,1.0389609336853027,1.6682102680206299
1665946345828615700,2.79661572265625,1.2877992391586304,1.0083394050598145,1.3669114112854004
1665946345838697700,2.80669775390625,1.2728692293167114,0.9248926639556885,0.7758592367172241
1665946345848779800,2.81677978515625,0.6497063636779785,0.6442437171936035,0.19768671691417694
1665946345858860800,2.82686083984375,0.39887815713882446,0.7499195337295532,-0.004805141594260931
1665946345868942800,2.83694287109375,0.19155584275722504,1.0828380584716797,-0.019298596307635307
1665946345879024600,2.847024658203125,0.06106388568878174,1.650119423866272,0.32410404086112976
1665946345889106700,2.857106689453125,-0.15579545497894287,1.929589867591858,0.4453068971633911
1665946345899187700,2.867187744140625,-0.2779996693134308,2.1340854167938232,0.4158153235912323
1665946345909269800,2.877269775390625,-0.33987313508987427,2.197427988052368,0.3051513731479645
1665946345919351800,2.887351806640625,-0.4112168252468109,2.2463417053222656,0.22526587545871735
1665946345929433900,2.897433837890625,-0.4357738494873047,2.286928415298462,0.188381627202034
1665946345939514600,2.9075146484375,-0.4186318814754486,2.2301747798919678,0.06992395967245102
1665946345949596700,2.9175966796875,-0.3884934186935425,2.2187798023223877,-0.04634778946638107
1665946345959678700,2.9276787109375,-0.3872867226600647,2.2820844650268555,-0.1391027569770813
1665946345969760800,2.9377607421875,-0.35356685519218445,2.4630508422851562,-0.1587883085012436
1665946345979841800,2.947841796875,-0.28099972009658813,2.3148038387298584,-0.16539828479290009
1665946345989923800,2.957923828125,-0.23667378723621368,2.173814058303833,-0.1815791130065918
1665946346000005600,2.968005615234375,-0.19996798038482666,2.148332357406616,-0.20022763311862946
1665946346010087700,2.978087646484375,-0.032043155282735825,1.9776079654693604,-0.2982490062713623
1665946346020169700,2.988169677734375,-0.04214026406407356,1.9321728944778442,-0.35109543800354004
1665946346030250800,2.998250732421875,-0.01781601458787918,2.1720166206359863,-0.3292956054210663
1665946346040332800,3.008332763671875,-0.04248594120144844,2.1205849647521973,-0.2445724606513977
1665946346050414800,3.018414794921875,-0.03303757682442665,2.100905179977417,-0.20412996411323547
1665946346060497000,3.028496826171875,0.07063741981983185,2.1125738620758057,-0.15163692831993103
1665946346070577700,3.03857763671875,0.1716415286064148,1.9701322317123413,-0.058932557702064514
1665946346080659700,3.04865966796875,0.14836017787456512,1.765946626663208,0.0029912625905126333
1665946346090741800,3.05874169921875,0.20196454226970673,1.6497163772583008,0.026687270030379295
1665946346100823600,3.068823486328125,0.27990275621414185,1.7000828981399536,0.12777580320835114
1665946346110904600,3.078904541015625,0.335111141204834,1.6786916255950928,0.21946550905704498
1665946346120986600,3.088986572265625,0.5657358169555664,1.7045894861221313,0.23711560666561127
1665946346131068700,3.099068603515625,0.6265842914581299,1.6881167888641357,0.3984632194042206
1665946346141150700,3.109150634765625,0.6526675224304199,1.881756067276001,0.5577860474586487
1665946346151231700,3.119231689453125,0.6608474254608154,1.9231256246566772,0.6117438077926636
1665946346161313800,3.129313720703125,0.6052563786506653,2.067683696746826,0.5420960187911987
1665946346171395800,3.139395751953125,0.49840205907821655,2.2381131649017334,0.3762918710708618
1665946346181478000,3.149477783203125,0.3777981698513031,2.288886547088623,0.1887800395488739
1665946346191559000,3.159558837890625,0.2493685483932495,2.1995272636413574,0.035169437527656555
1665946346201641000,3.169640869140625,0.12137889117002487,2.1918866634368896,-0.11655724048614502
1665946346211722500,3.179722412109375,0.053408097475767136,2.319023847579956,-0.26430729031562805
1665946346221804500,3.189804443359375,0.03325808793306351,2.4321975708007812,-0.34986400604248047
1665946346231886600,3.199886474609375,-0.008495749905705452,2.583002805709839,-0.37693876028060913
1665946346241967600,3.209967529296875,0.159986212849617,2.509289264678955,-0.21605239808559418
1665946346252049700,3.220049560546875,0.23377227783203125,2.2309515476226807,0.03897536173462868
1665946346262131700,3.230131591796875,0.29576534032821655,2.005159378051758,0.17537954449653625
1665946346272213800,3.2402138671875,0.31775373220443726,1.788144826889038,0.19156597554683685
1665946346282294800,3.250294677734375,0.2955605387687683,1.5880117416381836,0.1377301663160324
1665946346292376800,3.260376953125,0.2596116065979004,1.4712433815002441,0.01841043308377266
1665946346302459000,3.270458984375,0.2363765835762024,1.3719007968902588,-0.10055989772081375
1665946346312540700,3.280540771484375,0.19067886471748352,1.2274434566497803,-0.182908296585083
1665946346322621700,3.29062158203125,0.1438157558441162,1.129637598991394,-0.2140108197927475
1665946346332703700,3.300703857421875,0.08686352521181107,1.0975861549377441,-0.20754361152648926
1665946346342785800,3.310785888671875,0.021089306101202965,1.0781642198562622,-0.18651555478572845
1665946346352867800,3.320867919921875,-0.03224262595176697,1.091178297996521,-0.1513996422290802
1665946346362948600,3.330948486328125,-0.07555387914180756,1.1491681337356567,-0.14220215380191803
1665946346373029000,3.341029052734375,-0.11430233716964722,1.1703298091888428,-0.14491218328475952
1665946346383111200,3.351111083984375,-0.15536189079284668,1.1802823543548584,-0.1642930656671524
1665946346393193200,3.361193115234375,-0.1891305148601532,1.2411619424819946,-0.21978110074996948
1665946346403274200,3.371274169921875,-0.20904482901096344,1.2752163410186768,-0.28463971614837646
1665946346413356300,3.381356201171875,-0.25446876883506775,1.2613554000854492,-0.34398508071899414
1665946346423438300,3.391438232421875,-0.3095730245113373,1.4378111362457275,-0.4112818241119385
1665946346433520400,3.401520263671875,-0.3768884241580963,1.649735927581787,-0.46482226252555847
1665946346443601400,3.411601318359375,-0.4097534418106079,1.719233751296997,-0.4702114462852478
1665946346453683500,3.421683349609375,-0.4724317193031311,1.6897271871566772,-0.4419102966785431
1665946346463765500,3.431765625,-0.6521642208099365,1.606574535369873,-0.43097296357154846
1665946346473847300,3.441847412109375,-0.9431699514389038,1.4191982746124268,-0.46504729986190796
1665946346483928300,3.45192822265625,-1.080405592918396,1.2785545587539673,-0.5448670387268066
1665946346494010000,3.462010009765625,-1.1375354528427124,1.0941802263259888,-0.5534560084342957
1665946346504092200,3.472092041015625,-1.159333348274231,1.0153844356536865,-0.5835297703742981
1665946346514174200,3.48217431640625,-1.0339813232421875,0.8768316507339478,-0.5897948145866394
1665946346524255200,3.492255126953125,-0.7957922220230103,0.6195961236953735,-0.5799863934516907
1665946346534337300,3.502337158203125,-0.6688896417617798,0.39931464195251465,-0.5974351763725281
1665946346544419300,3.51241943359375,-0.6280719041824341,0.5492522120475769,-0.6783899664878845
1665946346554501400,3.52250146484375,-0.7690237164497375,0.672008216381073,-0.7481194734573364
1665946346564582400,3.53258251953125,-0.783108651638031,0.7808654308319092,-0.8049609661102295
1665946346574664400,3.54266455078125,-0.6040669679641724,1.1174263954162598,-0.8564292192459106
1665946346584746200,3.552746337890625,-0.5278680920600891,1.4167284965515137,-0.8771491050720215
1665946346594828300,3.562828369140625,-0.3090910017490387,1.623447299003601,-0.8445395231246948
1665946346604909000,3.572908935546875,-0.1681719571352005,1.5550711154937744,-0.708692193031311
1665946346614991000,3.5829912109375,-0.19237583875656128,1.3563276529312134,-0.596467912197113
1665946346625073200,3.5930732421875,-0.17382851243019104,1.1547874212265015,-0.4479881525039673
1665946346635155200,3.6031552734375,-0.17634093761444092,0.9872063994407654,-0.31042417883872986
1665946346645237200,3.6132373046875,-0.2499384582042694,0.5828506350517273,-0.2335357964038849
1665946346655318300,3.623318359375,-0.17025509476661682,0.5417442321777344,-0.19580279290676117
1665946346665400300,3.633400390625,-0.08406028151512146,0.6146639585494995,-0.16165786981582642
1665946346675482400,3.643482421875,-0.08281286060810089,0.5123445391654968,-0.18164169788360596
1665946346685564200,3.653564208984375,-0.08650186657905579,0.2862461507320404,-0.23153549432754517
1665946346695645400,3.6636455078125,-0.06024070456624031,0.17303623259067535,-0.27029645442962646
1665946346705727200,3.673727294921875,-0.020482372492551804,0.15036526322364807,-0.2704418897628784
1665946346715809300,3.683809326171875,0.051110055297613144,0.054175086319446564,-0.23810896277427673
1665946346725891300,3.693891357421875,0.12609508633613586,-0.05323685705661774,-0.19094811379909515
1665946346735972000,3.70397216796875,0.17069265246391296,-0.14818520843982697,-0.19876661896705627
1665946346746054100,3.71405419921875,0.2029254138469696,-0.21768811345100403,-0.24138891696929932
1665946346756136200,3.72413623046875,0.2207411676645279,-0.23170512914657593,-0.3050360679626465
1665946346766218200,3.73421826171875,0.2289935052394867,-0.19478972256183624,-0.38145628571510315
1665946346776299300,3.74429931640625,0.23177224397659302,-0.16133803129196167,-0.43857869505882263
1665946346786381300,3.75438134765625,0.2889636158943176,-0.1199977770447731,-0.5992597341537476
1665946346796463400,3.76446337890625,0.4151569902896881,0.02239398844540119,-0.698760449886322
1665946346806545200,3.774545166015625,0.6956884860992432,-0.006726345978677273,-0.6030914783477783
1665946346816626400,3.78462646484375,1.1249117851257324,0.027122696861624718,-0.5266920328140259
1665946346826708200,3.794708251953125,1.2914304733276367,-0.07509368658065796,-0.5815140008926392
1665946346836790300,3.804790283203125,1.2984555959701538,-0.03837428614497185,-0.8420108556747437
1665946346846872300,3.814872314453125,0.9268961548805237,-0.04668814316391945,-0.9874047636985779
1665946346856953300,3.824953369140625,0.5772688984870911,-0.016333166509866714,-0.8145400881767273
1665946346867035400,3.835035400390625,0.08008604496717453,0.00028096348978579044,-0.6095342040061951
1665946346877117200,3.8451171875,-0.3405565023422241,0.2044316977262497,-0.539171576499939
1665946346887199200,3.85519921875,-0.4731302857398987,0.3429347276687622,-0.44565150141716003
1665946346897280300,3.8652802734375,-0.34189528226852417,0.5206354856491089,-0.40072131156921387
1665946346907362300,3.8753623046875,-0.1527107208967209,0.6931238770484924,-0.44640064239501953
1665946346917444400,3.8854443359375,-0.11349593847990036,0.7506580352783203,-0.5535444021224976
1665946346927526100,3.895526123046875,-0.05205095186829567,0.7352526783943176,-0.6414282321929932
1665946346937607200,3.905607177734375,0.023273097351193428,0.8239260911941528,-0.6990731358528137
1665946346947689200,3.915689208984375,0.10817413777112961,0.9835956692695618,-0.7205626964569092
1665946346957771300,3.925771240234375,0.2035592496395111,1.1678032875061035,-0.7251076698303223
1665946346967853300,3.935853271484375,0.2920454442501068,1.2828348875045776,-0.7111364603042603
1665946346977935400,3.945935302734375,0.3007933795452118,1.300007939338684,-0.6769031286239624
1665946346988016400,3.956016357421875,0.271785169839859,1.158655047416687,-0.6323380470275879
1665946346998098400,3.966098388671875,0.2995252013206482,0.870018482208252,-0.5716272592544556
1665946347008180500,3.976180419921875,0.31843337416648865,0.6881278157234192,-0.5435301065444946
1665946347018262300,3.98626220703125,0.30621346831321716,0.5892336964607239,-0.5290971398353577
1665946347028343300,3.99634326171875,0.276975154876709,0.4768342077732086,-0.5286670327186584
1665946347038425000,4.006425048828125,0.26879897713661194,0.2722432315349579,-0.5432832837104797
1665946347048507100,4.016507080078125,0.2507246434688568,0.22594498097896576,-0.5867375135421753
1665946347058589200,4.026589111328125,0.1905401200056076,0.11506161093711853,-0.6631353497505188
1665946347068670200,4.036670166015625,0.1686321645975113,-0.16777382791042328,-0.6449869871139526
1665946347078752300,4.046752197265625,0.14070571959018707,-0.3406830132007599,-0.6196871995925903
1665946347088834300,4.056834228515625,0.11050573736429214,-0.43464624881744385,-0.6037431359291077
1665946347098916400,4.066916259765625,0.06178586930036545,-0.5045100450515747,-0.6042627096176147
1665946347108997400,4.076997314453125,0.0009643306257203221,-0.5450081825256348,-0.6002655625343323
1665946347119079400,4.087079345703125,-0.06402665376663208,-0.5064032673835754,-0.6121653914451599
1665946347129161500,4.097161376953125,-0.12277331948280334,-0.449908584356308,-0.6294559836387634
1665946347139243300,4.1072431640625,-0.17404823005199432,-0.4261941909790039,-0.6382614374160767
1665946347149324300,4.11732421875,-0.21699462831020355,-0.424656480550766,-0.6614200472831726
1665946347159406000,4.127406005859375,-0.24173380434513092,-0.4228697717189789,-0.6795691847801208
1665946347169488100,4.137488037109375,-0.2658524513244629,-0.4296882450580597,-0.7253638505935669
1665946347179570200,4.147570068359375,-0.299765408039093,-0.42801710963249207,-0.7880589365959167
1665946347189652200,4.15765234375,-0.3373953402042389,-0.4474661946296692,-0.8533556461334229
1665946347199733200,4.167733154296875,-0.3818056881427765,-0.5257468819618225,-0.8994845151901245
1665946347209815300,4.177815185546875,-0.42642107605934143,-0.596469521522522,-0.9183436632156372
1665946347219897300,4.1878974609375,-0.4696282148361206,-0.6209812760353088,-0.9316999912261963
1665946347229979400,4.1979794921875,-0.5050839185714722,-0.6256449818611145,-0.9460312724113464
1665946347240060400,4.208060302734375,-0.5087372660636902,-0.6502142548561096,-0.9863379001617432
1665946347250142200,4.21814208984375,-0.4954989552497864,-0.6645655035972595,-1.0424680709838867
1665946347260224300,4.228224365234375,-0.49442410469055176,-0.6518139839172363,-1.097156047821045
1665946347270306300,4.238306396484375,-0.5003198385238647,-0.6175364255905151,-1.1566036939620972
1665946347280387000,4.248386962890625,-0.5256006717681885,-0.5931820869445801,-1.234841227531433
1665946347290469000,4.25846923828125,-0.5549582839012146,-0.5508511662483215,-1.3121237754821777
1665946347300551200,4.26855126953125,-0.5967225432395935,-0.5424312949180603,-1.3606175184249878
1665946347310633200,4.27863330078125,-0.6069397330284119,-0.5192229151725769,-1.3923403024673462
1665946347320714200,4.28871435546875,-0.5914430618286133,-0.5355928540229797,-1.4011460542678833
1665946347330796300,4.29879638671875,-0.5393511056900024,-0.519511342048645,-1.4353708028793335
1665946347340878300,4.30887841796875,-0.4687139391899109,-0.5288241505622864,-1.4770357608795166
1665946347350960000,4.318960205078125,-0.3900772035121918,-0.5108531713485718,-1.5009623765945435
1665946347361041400,4.32904150390625,-0.31813669204711914,-0.44873011112213135,-1.4971082210540771
1665946347371123200,4.339123291015625,-0.2639906406402588,-0.33660465478897095,-1.5259475708007812
1665946347381206500,4.34920654296875,-0.24008822441101074,-0.22777004539966583,-1.630713701248169
1665946347391288600,4.35928857421875,-0.2447223961353302,-0.27546513080596924,-1.7074830532073975
1665946347401369600,4.36936962890625,-0.2567545473575592,-0.28547993302345276,-1.7588988542556763
1665946347411451600,4.37945166015625,-0.25568318367004395,-0.14364345371723175,-1.8385577201843262
1665946347421533700,4.38953369140625,-0.2690359950065613,-0.1632392555475235,-1.853057622909546
1665946347431615500,4.399615478515625,-0.27116653323173523,-0.19652077555656433,-1.8879404067993164
1665946347441697500,4.409697509765625,-0.2453136146068573,-0.12260714173316956,-1.978806972503662
1665946347451778600,4.419778564453125,-0.2221430540084839,-0.15795713663101196,-2.013331651687622
1665946347461860600,4.429860595703125,-0.19556763768196106,-0.2284262478351593,-1.9724808931350708
1665946347471942700,4.439942626953125,-0.16601666808128357,-0.17420269548892975,-1.9091719388961792
1665946347482023700,4.450023681640625,-0.11559344083070755,0.014585067518055439,-1.9082094430923462
1665946347492105700,4.460105712890625,-0.11805180460214615,-0.043525904417037964,-1.8540024757385254
1665946347502187500,4.4701875,-0.11205649375915527,-0.07195728272199631,-1.8030927181243896
1665946347512269600,4.48026953125,-0.12070857733488083,-0.16281554102897644,-1.7148003578186035
1665946347522351600,4.4903515625,-0.12868501245975494,-0.19106422364711761,-1.6332999467849731
1665946347532432600,4.5004326171875,-0.0772085040807724,-0.0636436939239502,-1.6631957292556763
1665946347542514700,4.5105146484375,-0.05307493731379509,-0.097514308989048,-1.720143437385559
1665946347552596500,4.520596435546875,-0.06791193783283234,-0.3214517831802368,-1.7319390773773193
1665946347562677500,4.530677490234375,-0.07150720804929733,-0.3511076867580414,-1.7418495416641235
1665946347572759600,4.540759521484375,-0.10137376189231873,-0.3807279169559479,-1.691916823387146
1665946347582841600,4.550841552734375,-0.07132051885128021,-0.3506339192390442,-1.65044105052948
1665946347592923600,4.560923583984375,-0.10235806554555893,-0.32077455520629883,-1.725979208946228
1665946347603004700,4.571004638671875,-0.1633812040090561,-0.5238115787506104,-1.717085599899292
1665946347613086700,4.581086669921875,-0.18396078050136566,-0.5535979270935059,-1.7230955362319946
1665946347623168800,4.591168701171875,-0.24521242082118988,-0.5159611105918884,-1.7412830591201782
1665946347633250800,4.601250732421875,-0.17776013910770416,-0.6205687522888184,-1.7425038814544678
1665946347643331600,4.61133154296875,-0.16400331258773804,-0.6954054236412048,-1.7456005811691284
1665946347653413600,4.62141357421875,-0.16802814602851868,-0.7158198952674866,-1.7950382232666016
1665946347663495400,4.631495361328125,-0.14068149030208588,-0.7486484050750732,-1.812482476234436
1665946347673577500,4.641577392578125,-0.1517474502325058,-0.8076654076576233,-1.7963663339614868
1665946347683658500,4.651658447265625,-0.13815760612487793,-0.8866603374481201,-1.7708724737167358
1665946347693740500,4.661740478515625,-0.15727297961711884,-0.9619622826576233,-1.7457188367843628
1665946347703822600,4.671822509765625,-0.21592536568641663,-1.000157117843628,-1.725827932357788
1665946347713904600,4.681904541015625,-0.24839915335178375,-1.0234551429748535,-1.7061538696289062
1665946347723985700,4.691985595703125,-0.2835017442703247,-1.0467994213104248,-1.7012557983398438
1665946347734067700,4.702067626953125,-0.27983778715133667,-1.0544559955596924,-1.6986693143844604
1665946347744149800,4.712149658203125,-0.25870639085769653,-1.0361979007720947,-1.6798908710479736
1665946347754231800,4.722231689453125,-0.2757090628147125,-0.9945569634437561,-1.615759015083313
1665946347764312600,4.7323125,-0.2750065326690674,-0.9526950120925903,-1.4670188426971436
1665946347774394600,4.74239453125,-0.27861911058425903,-0.9396295547485352,-1.265999674797058
1665946347784476400,4.752476318359375,-0.293824166059494,-0.9477793574333191,-1.0478081703186035
1665946347794558500,4.762558349609375,-0.3025430738925934,-0.9721355438232422,-0.8596649169921875
1665946347804639500,4.772639404296875,-0.2597721815109253,-0.9715563058853149,-0.6477790474891663
1665946347814721500,4.782721435546875,-0.14858122169971466,-0.9132946133613586,-0.49440813064575195
1665946347824803600,4.792803466796875,-0.051092479377985,-0.7786041498184204,-0.40338900685310364
1665946347834885600,4.8028857421875,0.022787071764469147,-0.6535144448280334,-0.30183467268943787
1665946347844966700,4.812966552734375,0.026392191648483276,-0.803891658782959,0.06377898156642914
1665946347855048700,4.823048583984375,0.06042632460594177,-0.850727379322052,0.39322423934936523
1665946347865130800,4.833130859375,0.1577123999595642,-0.8409218788146973,0.47092917561531067
1665946347875212500,4.843212646484375,0.2458433210849762,-0.8776000142097473,0.4478667378425598
1665946347885293800,4.8532939453125,0.30528053641319275,-0.8591919541358948,0.42233315110206604
1665946347895375600,4.863375732421875,0.3263126015663147,-0.8741205930709839,0.45921099185943604
1665946347905457400,4.87345751953125,0.3055119812488556,-0.8500338792800903,0.5652908086776733
1665946347915539500,4.88353955078125,0.29064327478408813,-0.8424252271652222,0.620975911617279
1665946347925620500,4.893620361328125,0.3076134920120239,-0.8493078947067261,0.6730774641036987
1665946347935702500,4.90370263671875,0.358273446559906,-0.8481928110122681,0.7264251112937927
1665946347945784600,4.91378466796875,0.4262421131134033,-0.8252909779548645,0.6940799355506897
1665946347955866600,4.92386669921875,0.44657161831855774,-0.7827536463737488,0.651685357093811
1665946347965947600,4.93394775390625,0.44793862104415894,-0.6839929819107056,0.5975656509399414
1665946347976029700,4.94402978515625,0.44642648100852966,-0.5379002094268799,0.49980050325393677
1665946347986111700,4.95411181640625,0.43234795331954956,-0.3657284379005432,0.3499753177165985
1665946347996193500,4.964193603515625,0.39014989137649536,-0.204145148396492,0.16329944133758545
1665946348006275600,4.974275634765625,0.35308241844177246,-0.1383642703294754,-0.04456773400306702
1665946348016356600,4.984356689453125,0.28795161843299866,-0.17876975238323212,-0.2487829178571701
1665946348026438700,4.994438720703125,0.20665650069713593,-0.19504059851169586,-0.45452195405960083
1665946348036520700,5.004520751953125,0.11891093850135803,-0.18583723902702332,-0.6026379466056824
1665946348046602500,5.0146025390625,0.03038293868303299,-0.1650584638118744,-0.6837711334228516
1665946348056683500,5.02468359375,-0.05702466890215874,-0.11128044873476028,-0.7380311489105225
1665946348066765600,5.034765625,-0.13148079812526703,-0.05511678010225296,-0.7728844881057739
1665946348076847600,5.04484765625,-0.2005128562450409,-0.08555245399475098,-0.8062150478363037
1665946348086929700,5.0549296875,-0.26165691018104553,-0.12557657063007355,-0.8417271971702576
1665946348097010700,5.0650107421875,-0.31090062856674194,-0.21504519879817963,-0.8530991673469543
1665946348107092700,5.0750927734375,-0.35174259543418884,-0.266961932182312,-0.8529273867607117
1665946348117174500,5.085174560546875,-0.38409119844436646,-0.2863718271255493,-0.8275402784347534
1665946348127256600,5.095256591796875,-0.40229684114456177,-0.29661914706230164,-0.8272936940193176
1665946348137337600,5.105337646484375,-0.4150656461715698,-0.3082481026649475,-0.8549487590789795
1665946348147419600,5.115419677734375,-0.42951542139053345,-0.31675609946250916,-0.8773232698440552
1665946348157501700,5.125501708984375,-0.45093947649002075,-0.3295097351074219,-0.8995979428291321
1665946348167583700,5.135583740234375,-0.4696524441242218,-0.3293265104293823,-0.9114333391189575
1665946348177664500,5.14566455078125,-0.4824571907520294,-0.30050018429756165,-0.8961414694786072
1665946348187746600,5.15574658203125,-0.4788757860660553,-0.2916398346424103,-0.8956471681594849
1665946348197828600,5.16582861328125,-0.4805479645729065,-0.27565687894821167,-0.9014214277267456
1665946348207910700,5.17591064453125,-0.47959455847740173,-0.2484590858221054,-0.8919283151626587
1665946348217991700,5.18599169921875,-0.4763124883174896,-0.232371985912323,-0.8852235674858093
1665946348228073500,5.196073486328125,-0.44655752182006836,-0.19875676929950714,-0.8620689511299133
1665946348238155500,5.206155517578125,-0.399179071187973,-0.17786134779453278,-0.820470929145813
1665946348248237600,5.216237548828125,-0.35577380657196045,-0.2038750946521759,-0.7998660206794739
1665946348258318600,5.226318603515625,-0.34626924991607666,-0.2037118524312973,-0.7722474932670593
1665946348268400600,5.236400634765625,-0.35475727915763855,-0.2230224311351776,-0.7235619425773621
1665946348278482700,5.246482666015625,-0.37215039134025574,-0.1923862248659134,-0.6714524030685425
1665946348288564700,5.256564697265625,-0.3876931369304657,-0.1394854635000229,-0.6223000288009644
1665946348298646800,5.266646728515625,-0.4021240174770355,-0.09792336821556091,-0.583472728729248
1665946348308727600,5.2767275390625,-0.4069770872592926,-0.055809468030929565,-0.5492638945579529
1665946348318809600,5.2868095703125,-0.421928346157074,-0.04314001277089119,-0.5051611661911011
1665946348328891400,5.296891357421875,-0.4258466362953186,-0.01998302899301052,-0.4631005525588989
1665946348338973400,5.306973388671875,-0.41694608330726624,-0.011631888337433338,-0.44358596205711365
1665946348349054500,5.317054443359375,-0.417035311460495,0.010325075127184391,-0.4380151629447937
1665946348359136500,5.327136474609375,-0.4256274700164795,0.0265988539904356,-0.4341146945953369
1665946348369218600,5.337218505859375,-0.4335189461708069,0.03322320058941841,-0.41709816455841064
1665946348379299800,5.3472998046875,-0.4393717646598816,0.07643378525972366,-0.3575195074081421
1665946348389380900,5.357380859375,-0.4366089999675751,0.10449658334255219,-0.307464599609375
1665946348399463000,5.367462890625,-0.42487964034080505,0.14865632355213165,-0.22952747344970703
1665946348409545000,5.377544921875,-0.4113822281360626,0.1856609433889389,-0.15223507583141327
1665946348419627000,5.387626953125,-0.40693846344947815,0.18062198162078857,-0.07753873616456985
1665946348429708000,5.3977080078125,-0.3902180790901184,0.1714140921831131,-0.02556661330163479
1665946348439790000,5.4077900390625,-0.38183364272117615,0.19372446835041046,0.022592926397919655
1665946348449872000,5.417871826171875,-0.3677774965763092,0.20357656478881836,0.06847226619720459
1665946348459953700,5.42795361328125,-0.34334057569503784,0.16695383191108704,0.23383380472660065
1665946348470035000,5.438034912109375,-0.3338397443294525,0.30293136835098267,0.2559231221675873
1665946348480116700,5.44811669921875,-0.3294524550437927,0.28514519333839417,0.34672653675079346
1665946348490198800,5.45819873046875,-0.30130845308303833,0.30647045373916626,0.36891570687294006
1665946348500280800,5.46828076171875,-0.28314489126205444,0.27064692974090576,0.4776453971862793
1665946348510361900,5.47836181640625,-0.2961014211177826,0.28912606835365295,0.5918598771095276
1665946348520444000,5.48844384765625,-0.3169819414615631,0.2653786838054657,0.5879213213920593
1665946348530526000,5.49852587890625,-0.40278634428977966,0.13867506384849548,0.6404561400413513
1665946348540608000,5.50860791015625,-0.43456265330314636,0.1472451090812683,0.6600332856178284
1665946348550689000,5.51868896484375,-0.3923611342906952,0.10340069234371185,0.554476797580719
1665946348560771000,5.52877099609375,-0.4254181385040283,0.08223707973957062,0.5091111660003662
1665946348570853000,5.53885302734375,-0.4778459370136261,0.10673496872186661,0.5219619870185852
1665946348580935000,5.548934814453125,-0.5055438876152039,0.19550319015979767,0.492087721824646
1665946348591016000,5.559015869140625,-0.5266448855400085,0.1572522073984146,0.4809863269329071
1665946348601097700,5.56909765625,-0.5474492311477661,0.15912413597106934,0.38840019702911377
1665946348611179800,5.5791796875,-0.5470662713050842,0.12953296303749084,0.37128859758377075
1665946348621261800,5.58926171875,-0.5289866328239441,0.1168280839920044,0.3818317949771881
1665946348631342800,5.5993427734375,-0.49174657464027405,0.07702367752790451,0.5114885568618774
1665946348641425000,5.6094248046875,-0.47998738288879395,0.10416342318058014,0.4553672671318054
1665946348651507000,5.6195068359375,-0.4938368797302246,0.06597156077623367,0.44792479276657104
1665946348661589000,5.629589111328125,-0.5328487157821655,0.054176684468984604,0.44759002327919006
1665946348671671000,5.639671142578125,-0.5833830237388611,0.0733325332403183,0.45284178853034973
1665946348681752000,5.649751953125,-0.649745523929596,0.09352542459964752,0.3718148469924927
1665946348691833900,5.659833740234375,-0.6912252902984619,0.08736979216337204,0.3014722168445587
1665946348701916000,5.669916015625,-0.7166318893432617,0.10322412103414536,0.25761130452156067
1665946348711998000,5.679998046875,-0.719754159450531,0.13081207871437073,0.24812938272953033
1665946348722078700,5.69007861328125,-0.70817631483078,0.15102866291999817,0.25485438108444214
1665946348732160800,5.700160888671875,-0.6841098666191101,0.14365650713443756,0.2881058156490326
1665946348742242800,5.710242919921875,-0.6692278981208801,0.11340805143117905,0.31882885098457336
1665946348752324900,5.720324951171875,-0.6571746468544006,0.07925167679786682,0.3254159092903137
1665946348762406000,5.730406005859375,-0.6604767441749573,0.05546432361006737,0.3236377239227295
1665946348772488000,5.740488037109375,-0.6622946262359619,0.07994596660137177,0.32876989245414734
1665946348782570000,5.750570068359375,-0.6626083254814148,0.11197074502706528,0.3258393406867981
1665946348792651800,5.76065185546875,-0.6575374007225037,0.12834465503692627,0.31417229771614075
1665946348802733000,5.770733154296875,-0.6518126726150513,0.12291020900011063,0.31967705488204956
1665946348812814800,5.78081494140625,-0.6652251482009888,0.07791130989789963,0.31824827194213867
1665946348822897000,5.79089697265625,-0.6910170316696167,0.05819166824221611,0.28381386399269104
1665946348832979000,5.80097900390625,-0.7307721972465515,0.06677663326263428,0.2262166291475296
1665946348843059700,5.811059814453125,-0.7919021248817444,0.0751621276140213,0.169477179646492
1665946348853141800,5.821141845703125,-0.8504503965377808,0.06699208170175552,0.1339772492647171
1665946348863223800,5.831223876953125,-0.9034563302993774,0.06034696474671364,0.11301496624946594
1665946348873305900,5.841305908203125,-0.9448626637458801,0.06329827755689621,0.0867689847946167
1665946348883387000,5.851386962890625,-0.9872556328773499,0.08518200367689133,0.059414856135845184
1665946348893469000,5.861468994140625,-1.0325522422790527,0.1369117796421051,0.03130359575152397
1665946348903551000,5.871551025390625,-1.0682079792022705,0.19266478717327118,0.0007273092633113265
1665946348913632800,5.8816328125,-1.0926281213760376,0.2180524319410324,-0.003356115659698844
1665946348923714000,5.891714111328125,-1.106056809425354,0.20609085261821747,0.0035870117135345936
1665946348933795800,5.9017958984375,-1.1190959215164185,0.19139526784420013,0.00821052584797144
1665946348943878000,5.9118779296875,-1.1246212720870972,0.16662919521331787,0.009555155411362648
1665946348953960000,5.9219599609375,-1.1230156421661377,0.1512443721294403,0.016055665910243988
1665946348964041000,5.932041015625,-1.1152567863464355,0.13734348118305206,0.04838857054710388
1665946348974123000,5.942123046875,-1.095119833946228,0.12635821104049683,0.0982155129313469
1665946348984205000,5.952205078125,-1.0787650346755981,0.12838061153888702,0.13367684185504913
1665946348994287000,5.962287109375,-1.0694767236709595,0.14265328645706177,0.14229881763458252
1665946349004369000,5.972368896484375,-1.0714424848556519,0.15986104309558868,0.11817697435617447
1665946349014450000,5.982449951171875,-1.0775349140167236,0.16071990132331848,0.06802193075418472
1665946349024532000,5.992531982421875,-1.0787190198898315,0.14244209229946136,0.007711715530604124
1665946349034613800,6.00261376953125,-1.0867021083831787,0.12447375059127808,-0.06078105792403221
1665946349044695800,6.01269580078125,-1.106405258178711,0.11849948018789291,-0.11972080916166306
1665946349054776800,6.02277685546875,-1.131056785583496,0.13453836739063263,-0.17992982268333435
1665946349064859000,6.03285888671875,-1.1504557132720947,0.14547304809093475,-0.23215094208717346
1665946349074941000,6.04294091796875,-1.163564920425415,0.1286139041185379,-0.28873246908187866
1665946349085023000,6.05302294921875,-1.1678872108459473,0.09675423800945282,-0.33118245005607605
1665946349095104000,6.06310400390625,-1.1636104583740234,0.0772809386253357,-0.3470602333545685
1665946349105186000,6.07318603515625,-1.158189058303833,0.03973755985498428,-0.3485089838504791
1665946349115268000,6.08326806640625,-1.155592679977417,-0.008205199614167213,-0.35691311955451965
1665946349125350000,6.093349853515625,-1.155964732170105,-0.03495665267109871,-0.37467798590660095
1665946349135431000,6.103430908203125,-1.1702030897140503,-0.00022130868455860764,-0.38440757989883423
1665946349145512700,6.1135126953125,-1.1993156671524048,0.03485971316695213,-0.39083272218704224
1665946349155594800,6.1235947265625,-1.2400423288345337,0.06415794789791107,-0.38950806856155396
1665946349165676800,6.1336767578125,-1.2761566638946533,0.08566590398550034,-0.3629473149776459
1665946349175757800,6.1437578125,-1.296562910079956,0.06486581265926361,-0.3277134299278259
1665946349185839900,6.15383984375,-1.3075146675109863,0.038413435220718384,-0.2976681590080261
1665946349195922000,6.163921875,-1.3156380653381348,0.02413116954267025,-0.26171258091926575
1665946349206004000,6.17400390625,-1.3263559341430664,0.018077004700899124,-0.21892276406288147
1665946349216085000,6.1840849609375,-1.3286534547805786,0.013658287934958935,-0.16913975775241852
1665946349226167000,6.1941669921875,-1.3310151100158691,-0.0057071540504693985,-0.12637151777744293
1665946349236249000,6.2042490234375,-1.3340942859649658,-0.02148664928972721,-0.10476076602935791
1665946349246331000,6.214330810546875,-1.3398422002792358,-0.025548236444592476,-0.09989570081233978
1665946349256412000,6.224411865234375,-1.3526650667190552,-0.01569720357656479,-0.1074921041727066
1665946349266493700,6.23449365234375,-1.3704535961151123,-0.015323296189308167,-0.13158679008483887
1665946349276575700,6.24457568359375,-1.3836922645568848,-0.025429992005228996,-0.16713732481002808
1665946349286657800,6.25465771484375,-1.4000799655914307,-0.026275012642145157,-0.20911647379398346
1665946349296738800,6.26473876953125,-1.4113869667053223,-0.03188682720065117,-0.23208729922771454
1665946349306820900,6.27482080078125,-1.4144405126571655,-0.047865524888038635,-0.24188746511936188
1665946349316903000,6.28490283203125,-1.4171884059906006,-0.07181506603956223,-0.24540629982948303
1665946349326985000,6.29498486328125,-1.423728585243225,-0.07164782285690308,-0.2513965368270874
1665946349337066000,6.30506591796875,-1.4348489046096802,-0.06629274040460587,-0.2711891531944275
1665946349347148000,6.31514794921875,-1.4452359676361084,-0.062242068350315094,-0.2814039885997772
1665946349357229800,6.325229736328125,-1.4583613872528076,-0.06421840190887451,-0.27455273270606995
1665946349367312000,6.335311767578125,-1.473500370979309,-0.06752524524927139,-0.2636968791484833
1665946349377393200,6.34539306640625,-1.4872229099273682,-0.07910440862178802,-0.24433384835720062
1665946349387475200,6.35547509765625,-1.5004161596298218,-0.09415099769830704,-0.22455614805221558
1665946349397557200,6.36555712890625,-1.5006563663482666,-0.10057481378316879,-0.19858765602111816
1665946349407639300,6.375639404296875,-1.4945026636123657,-0.10327498614788055,-0.17344608902931213
1665946349417721300,6.385721435546875,-1.4752804040908813,-0.09891459345817566,-0.1469380408525467
1665946349427802400,6.39580224609375,-1.4554649591445923,-0.10070157796144485,-0.1347128003835678
1665946349437884400,6.405884521484375,-1.4269944429397583,-0.0999889150261879,-0.12497442215681076
1665946349447966500,6.415966552734375,-1.4032955169677734,-0.09807489812374115,-0.11781025677919388
1665946349458048300,6.42604833984375,-1.3832982778549194,-0.09204497188329697,-0.10796614736318588
1665946349468129300,6.43612939453125,-1.3706117868423462,-0.09657474607229233,-0.08830296248197556
1665946398039201500,55.007201416015626,0.38498950004577637,-1.6887996196746826,-1.3970615863800049
1665946398049282600,55.01728247070312,0.37192001938819885,-1.1594420671463013,-1.4071719646453857
1665946398059363300,55.02736328125,0.3981172740459442,-0.5908776521682739,-1.3553681373596191
1665946398069444400,55.0374443359375,0.5273229479789734,-0.26026806235313416,-1.238731026649475
1665946398079526400,55.0475263671875,0.6647910475730896,-0.1959545910358429,-1.0794143676757812
1665946398089607400,55.057607421875,0.7594749331474304,-0.17648501694202423,-0.9042760729789734
1665946398099688400,55.0676884765625,0.8151861429214478,-0.10080677270889282,-0.7484833002090454
1665946398109769500,55.07776953125,0.8413594365119934,0.077500119805336,-0.5745024085044861
1665946398119850500,55.0878505859375,0.8471278548240662,0.4300467073917389,-0.4445239305496216
1665946398129931500,55.097931640625,0.8042117953300476,0.7953658103942871,-0.3855000138282776
1665946398140012500,55.108012451171874,0.7575055360794067,0.8603829145431519,-0.273574560880661
1665946398150094600,55.118094482421874,0.701741635799408,0.9172006845474243,-0.20433422923088074
1665946398160175600,55.12817553710938,0.6331079602241516,0.9003614783287048,-0.17532707750797272
1665946398170256400,55.13825634765625,0.5275101661682129,0.8091897964477539,-0.15908658504486084
1665946398180337400,55.14833740234375,0.4533131718635559,0.7624078989028931,-0.17924298346042633
1665946398190418400,55.15841845703125,0.44326984882354736,0.7481099367141724,-0.24000194668769836
1665946398200499500,55.16849951171875,0.47721076011657715,0.6982640624046326,-0.29536134004592896
1665946398210580500,55.17858056640625,0.5200551748275757,0.5980581045150757,-0.35009169578552246
1665946398220661500,55.18866162109375,0.580860435962677,0.5084051489830017,-0.39623016119003296
1665946398230743300,55.19874340820313,0.6211516857147217,0.38340306282043457,-0.42440375685691833
1665946398240824600,55.208824462890625,0.5875873565673828,0.258110374212265,-0.4684194028377533
1665946398250905600,55.21890551757812,0.5192575454711914,0.17869864404201508,-0.5237577557563782
1665946398260986600,55.228986572265626,0.5001816153526306,0.11326637119054794,-0.5756105780601501
1665946398271067400,55.2390673828125,0.5202903151512146,0.1735728532075882,-0.5823742151260376
1665946398281148400,55.2491484375,0.2940358817577362,0.8836997151374817,-0.33031800389289856
1665946398291229400,55.2592294921875,-0.04177674278616905,1.2821437120437622,0.06329401582479477
1665946398301310500,55.269310546875,-0.15036819875240326,1.2908821105957031,0.4219357967376709
1665946398311392500,55.279392578125,0.024081634357571602,1.1107776165008545,0.7015232443809509
1665946398321473500,55.2894736328125,0.24913844466209412,0.8539668321609497,0.8962567448616028
1665946398331554300,55.29955419921875,0.3511306047439575,0.6548121571540833,0.9801591038703918
1665946398341635600,55.30963549804687,0.33743396401405334,0.4819149672985077,0.9444777965545654
1665946398351716600,55.31971655273438,0.26467907428741455,0.3108558654785156,0.8515383005142212
1665946398361797600,55.329797607421874,0.21809478104114532,0.15627029538154602,0.705853283405304
1665946398371878400,55.33987841796875,0.16231673955917358,-0.06867067515850067,0.6470916867256165
1665946398381960400,55.34996044921875,0.1641942709684372,-0.08401394635438919,0.64481121301651
1665946398392041500,55.36004150390625,0.22618812322616577,0.08765555173158646,0.6813969016075134
1665946398402122500,55.37012255859375,0.1966555416584015,0.06781313568353653,0.6638424396514893
1665946398412203500,55.38020361328125,0.08534179627895355,0.07479780912399292,0.5261359810829163
1665946398422284300,55.3902841796875,-0.07972412556409836,0.15328329801559448,0.44842225313186646
1665946398432365300,55.400365234375,-0.16996879875659943,0.18651129305362701,0.46710193157196045
1665946398442446600,55.41044653320313,-0.12080098688602448,0.09924881905317307,0.5721197128295898
1665946398452527600,55.420527587890625,-0.03603416681289673,0.05915280058979988,0.6652097105979919
1665946398462609400,55.430609375,-0.009918943047523499,0.03395423665642738,0.6789766550064087
1665946398472690700,55.44069067382812,0.025962624698877335,0.06215924397110939,0.6010677218437195
1665946398482771500,55.450771484375,-0.04370274022221565,-0.08223921060562134,0.4844284653663635
1665946398492852500,55.4608525390625,-0.14775137603282928,-0.18614031374454498,0.4394777715206146
1665946398502933500,55.47093359375,-0.13056014478206635,-0.28130650520324707,0.4027852714061737
1665946398513014500,55.4810146484375,-0.1412881463766098,-0.3798653185367584,0.38311702013015747
1665946398523095300,55.49109521484375,-0.1368960589170456,-0.2943357527256012,0.40355464816093445
1665946398533177300,55.50117724609375,-0.018367821350693703,-0.3456529974937439,0.43262067437171936
1665946398543258400,55.51125830078125,0.16721774637699127,-0.6098995804786682,0.4952220022678375
1665946398553339400,55.52133935546875,0.3497186005115509,-0.7851949334144592,0.5188801884651184
1665946398563420400,55.53142041015625,0.4180015027523041,-0.7767357230186462,0.4849581718444824
1665946398573501700,55.54150170898438,0.3600947856903076,-0.5641206502914429,0.4237017333507538
1665946398583582500,55.55158251953125,0.2520868480205536,-0.3411698341369629,0.3469473123550415
1665946398593663500,55.56166357421875,0.1485644429922104,-0.14995567500591278,0.23955640196800232
1665946398603745500,55.57174560546875,0.09504236280918121,-0.044021785259246826,0.016092684119939804
1665946398613826600,55.58182666015625,0.08309275656938553,0.349004328250885,-0.41593968868255615
1665946398623907600,55.59190747070313,0.04728762060403824,0.7234112024307251,-0.6745336651802063
1665946398633988400,55.60198828125,-0.018155567348003387,0.7513296604156494,-0.6705453395843506
1665946398644069400,55.6120693359375,-0.0804825946688652,0.5754079222679138,-0.55560302734375
1665946398654150400,55.622150390625,-0.051665324717760086,0.36800864338874817,-0.3830896019935608
1665946398664231400,55.6322314453125,-0.02406938374042511,0.20461305975914001,-0.18773475289344788
1665946398674313500,55.6423134765625,-0.03856417164206505,0.023973776027560234,0.011033742688596249
1665946398684394500,55.65239453125,-0.0630604550242424,-0.12825463712215424,0.1538769155740738
1665946398694475500,55.6624755859375,-0.07160627841949463,-0.18352028727531433,0.19964599609375
1665946398704556500,55.672556640625,-0.07500287145376205,-0.10272717475891113,0.16978903114795685
1665946398714637600,55.68263745117188,-0.08964093774557114,0.005931125953793526,0.14498142898082733
1665946398724718600,55.692718505859375,-0.11903131753206253,0.028895830735564232,0.16048501431941986
1665946398734799400,55.70279931640625,-0.1584428995847702,0.010745588690042496,0.21394744515419006
1665946398744881400,55.71288134765625,-0.1983671486377716,-0.03068387694656849,0.2648684084415436
1665946398754962400,55.72296240234375,-0.222974494099617,-0.07807003706693649,0.3009324073791504
1665946398765043500,55.73304345703125,-0.22051958739757538,-0.048407744616270065,0.2936127185821533
1665946398775124500,55.74312451171875,-0.22798016667366028,-0.020960675552487373,0.28016746044158936
1665946398785205200,55.75320532226562,-0.21259374916553497,-0.04880136251449585,0.2892480492591858
1665946398795286300,55.763286376953126,-0.1648922860622406,-0.10770329087972641,0.3360286056995392
1665946398805367300,55.7733671875,-0.08079711347818375,-0.1547704041004181,0.40011119842529297
1665946398815449300,55.78344946289062,-0.04625457897782326,-0.2214469015598297,0.44756659865379333
1665946398825530000,55.793530029296875,-0.06010860949754715,-0.27302300930023193,0.4557211995124817
1665946398835611100,55.80361108398437,-0.08710107952356339,-0.22185249626636505,0.4431052505970001
1665946398845692200,55.813692138671875,-0.11300298571586609,-0.15909165143966675,0.41567283868789673
1665946398855773200,55.82377319335937,-0.1173575222492218,-0.09893909841775894,0.37123826146125793
1665946398865854200,55.833854248046876,-0.11682914942502975,-0.057791128754615784,0.31705304980278015
1665946398875935000,55.84393505859375,-0.10805802792310715,-0.019103653728961945,0.2479938268661499
1665946398886017000,55.85401708984375,-0.09448922425508499,-0.035599540919065475,0.18428382277488708
1665946398896098000,55.86409814453125,-0.10229387879371643,-0.05169648304581642,0.1289055198431015
1665946398906179000,55.87417895507812,-0.09214004874229431,-0.022832078859210014,0.10936590284109116
1665946398916260400,55.88426025390625,-0.08815862238407135,-0.040826261043548584,0.10267338156700134
1665946398926341000,55.89434106445312,-0.1105683222413063,-0.050390202552080154,0.10113807022571564
1665946398936422100,55.90442211914063,-0.10776614397764206,-0.06294514238834381,0.09074880927801132
1665946398946503200,55.91450317382812,-0.06829623132944107,-0.08364216238260269,0.05414126440882683
1665946398956585200,55.924585205078124,-0.0483960285782814,-0.07224597036838531,-0.005658418405801058
1665946398966666200,55.93466625976563,-0.06325167417526245,-0.022341258823871613,-0.07381856441497803
1665946398976747000,55.9447470703125,-0.08567282557487488,0.035720180720090866,-0.11930561810731888
1665946398986828000,55.954828125,-0.10271599143743515,0.0884193480014801,-0.13019102811813354
1665946398996909000,55.96490893554687,-0.10791954398155212,0.12107795476913452,-0.12256745994091034
1665946399006990000,55.97498999023438,-0.10308670252561569,0.11471353471279144,-0.1101057305932045
1665946399017072000,55.98507202148438,-0.08841721713542938,0.10260200500488281,-0.09581414610147476
1665946399027153200,55.995153076171874,-0.04922293871641159,0.12612996995449066,-0.08091562241315842
1665946399037234200,56.00523413085938,0.010783671401441097,0.13344886898994446,-0.041918687522411346
1665946399047315200,56.015315185546875,0.029319273307919502,0.08417852967977524,-0.004758003633469343
1665946399057396200,56.02539624023437,0.02352103777229786,0.05774398893117905,0.019103121012449265
1665946399067477200,56.035477294921876,-0.004078364931046963,0.042153578251600266,0.013529391027987003
1665946399077558000,56.04555810546875,-0.04429076611995697,0.043415915220975876,-0.018395785242319107
1665946399087640000,56.05564013671875,-0.07471631467342377,0.04105635732412338,-0.05236120894551277
1665946399097721000,56.06572119140625,-0.06390547752380371,0.028202077373862267,-0.07556559890508652
1665946399107802000,56.07580200195312,-0.038665637373924255,0.018483668565750122,-0.08473166823387146
1665946399117883100,56.085883056640625,-0.02822098508477211,0.0312519297003746,-0.060325659811496735
1665946399127964200,56.09596411132812,-0.021771341562271118,0.035957735031843185,-0.010178867727518082
1665946399138046200,56.10604614257812,-0.008207329548895359,0.02479456178843975,0.03467142581939697
1665946399148127000,56.116126953125,0.007731689140200615,0.023333817720413208,0.05055798217654228
1665946399158208300,56.12620825195312,0.018083928152918816,0.02473863586783409,0.05055931210517883
1665946399168289300,56.13628930664063,0.016225308179855347,0.0293728020042181,0.06024283543229103
1665946399178370300,56.146370361328124,0.015396533533930779,0.021348964422941208,0.0633334293961525
1665946399188451000,56.156451171875,0.015456453897058964,0.004976116586476564,0.06477393954992294
1665946399198532000,56.16653198242187,0.01834598369896412,0.006112753413617611,0.0747341588139534
1665946399208614100,56.1766142578125,0.0300175528973341,0.033535588532686234,0.07310084253549576
1665946399218695200,56.18669506835938,0.04960110783576965,0.025313079357147217,0.05964548513293266
1665946399228776200,56.196776123046874,0.056718938052654266,0.010914166457951069,0.038239795714616776
1665946399238857000,56.20685693359375,0.05324511229991913,0.003096457337960601,0.03020583838224411
1665946399248938000,56.21693798828125,0.037462685257196426,-0.012006595730781555,0.030779218301177025
1665946399259019300,56.22701928710938,0.030315294861793518,-0.020124176517128944,0.01702425628900528
1665946399269101000,56.23710107421875,0.024153539910912514,-0.021568408235907555,-0.008614793419837952
1665946399279182000,56.24718212890625,0.019840283319354057,-0.003629089565947652,-0.01661759242415428
1665946399289263400,56.25726342773437,0.004883171990513802,0.013107546605169773,0.005404619034379721
1665946399299344100,56.26734423828125,-0.014943795278668404,0.027520574629306793,0.03544960170984268
1665946399309425200,56.27742504882813,-0.03494599834084511,0.036913543939590454,0.05499614030122757
1665946399319507200,56.28750708007812,-0.04138738662004471,0.0423506535589695,0.05505233258008957
1665946399329588200,56.297588134765626,-0.04151362180709839,0.0523657351732254,0.0390336848795414
1665946399339669200,56.30766918945312,-0.04772384464740753,0.050564106553792953,0.024573786184191704
1665946399349750000,56.31775,-0.0466359443962574,0.03014618344604969,0.018016284331679344
1665946399359831000,56.3278310546875,-0.04120735824108124,0.013375193811953068,0.010909639298915863
1665946399369912000,56.337912109375,-0.03099999390542507,0.02720791846513748,-0.008400674909353256
1665946399379994000,56.347994140625,-0.01649056002497673,0.0340554378926754,-0.023518376052379608
1665946399390075100,56.3580751953125,-0.012880911119282246,0.019122561439871788,-0.014880145899951458
1665946399400156200,56.36815625,-0.018578477203845978,0.008918393403291702,-0.004314054735004902
1665946399410237200,56.3782373046875,-0.007324757985770702,0.015498265624046326,-0.037154823541641235
1665946399420318200,56.38831811523438,0.00427250936627388,0.030962709337472916,-0.08046155422925949
1665946399430399200,56.39839916992187,-0.00475560687482357,0.04194958135485649,-0.08461768180131912
1665946399440481300,56.408481201171874,-0.011095527559518814,0.03496437519788742,-0.05547764152288437
1665946399450562300,56.41856225585938,-0.017363278195261955,0.03626532852649689,-0.0239412859082222
1665946399460643000,56.42864306640625,-0.015667643398046494,0.030314229428768158,-0.005081044975668192
1665946399470724000,56.43872412109375,-0.017537182196974754,0.02203313075006008,0.016267387196421623
1665946399480805000,56.44880517578125,-0.020555341616272926,0.009489108808338642,0.04162707179784775
1665946399490887200,56.45888720703125,-0.02876187302172184,-0.022609971463680267,0.05706355348229408
1665946399500968200,56.46896826171875,-0.02166534774005413,-0.040047284215688705,0.04060228914022446
1665946399511049000,56.479049072265624,-0.019239474087953568,-0.029110746458172798,0.018637066707015038
1665946399521130000,56.4891298828125,-0.022056832909584045,-0.023750336840748787,0.004279433749616146
1665946399531211300,56.499211181640625,-0.027334950864315033,-0.00455800024792552,-0.0007390272221527994
1665946399541293000,56.50929296875,-0.03635268285870552,0.013800500892102718,0.006367618218064308
1665946399551374000,56.5193740234375,-0.039135150611400604,0.019887154921889305,0.02437910996377468
1665946399561455400,56.529455322265626,-0.04447612166404724,0.021277591586112976,0.045284125953912735
1665946399571536100,56.5395361328125,-0.05285362899303436,0.014445518143475056,0.059484098106622696
1665946399581617200,56.5496171875,-0.05071164667606354,0.01774996891617775,0.050756655633449554
1665946399591698200,56.5596982421875,-0.048950765281915665,0.021737253293395042,0.04718109592795372
1665946399601780200,56.5697802734375,-0.05269010737538338,0.022013423964381218,0.057500578463077545
1665946399611861200,56.579861328125,-0.05524994060397148,0.019696738570928574,0.07212186604738235
1665946399621942000,56.58994189453125,-0.05105200037360191,0.00803156103938818,0.08420222997665405
1665946399632023000,56.60002294921875,-0.049420278519392014,0.007408914156258106,0.07925380766391754
1665946399642104000,56.61010400390625,-0.04424123093485832,-0.006720487028360367,0.04604285955429077
1665946399652186000,56.62018603515625,-0.03875671699643135,-0.019901003688573837,0.006874151527881622
1665946399662267100,56.63026708984375,-0.03455691039562225,-0.01281513087451458,-0.008219313807785511
1665946399672348200,56.64034814453125,-0.03489992767572403,-0.008170312270522118,0.01013705600053072
1665946399682429200,56.65042919921875,-0.03389245271682739,-0.01005023717880249,0.04128911718726158
1665946399692510200,56.66051025390625,-0.031924910843372345,-0.00987313687801361,0.06150463968515396
1665946399702592300,56.67059228515625,-0.03419365733861923,-0.011979697272181511,0.0612628236413002
1665946399712673300,56.68067333984375,-0.027220701798796654,-0.019882628694176674,0.05360863357782364
1665946399722754300,56.69075439453125,-0.03352786600589752,-0.028209533542394638,0.04560184106230736
1665946399732835000,56.7008349609375,-0.04224599152803421,-0.02672029472887516,0.04182867333292961
1665946399742916000,56.710916015625,-0.04789455607533455,-0.00827737059444189,0.0400954894721508
1665946399752998100,56.720998046875,-0.05257346108555794,0.007250988855957985,0.0342453233897686
1665946399763079200,56.7310791015625,-0.052611012011766434,0.022604111582040787,0.03561897948384285
1665946399773160200,56.74116015625,-0.05302033945918083,0.016025038436055183,0.03940732777118683
1665946399783241700,56.75124169921875,-0.05024000257253647,0.00446984963491559,0.03945792838931084
1665946399793322800,56.76132275390625,-0.05584116280078888,0.0016431703697890043,0.03136191889643669
1665946399803404800,56.77140478515625,-0.06054137274622917,0.00498224189504981,0.020681310445070267
1665946399813485800,56.78148583984375,-0.06210518255829811,0.010878213681280613,0.01690335012972355
1665946399823566800,56.79156689453125,-0.06256990134716034,0.007749265991151333,0.0264222864061594
1665946399833647900,56.80164794921875,-0.060509148985147476,-0.0017720673931762576,0.04021186754107475
1665946399843730000,56.81172998046875,-0.06422452628612518,-0.007218498270958662,0.045279331505298615
1665946399853810700,56.82181079101562,-0.07021158188581467,-0.004631503485143185,0.03717613220214844
1665946399863891700,56.8318916015625,-0.07573896646499634,0.0002745719102676958,0.022119948640465736
1665946399873973000,56.84197290039062,-0.07705137133598328,0.00336117553524673,0.006811034400016069
1665946399884054000,56.85205395507813,-0.08001387864351273,0.019897541031241417,-0.008127168752253056
1665946399894136000,56.86213598632813,-0.08232816308736801,0.03773832321166992,-0.01786048896610737
1665946399904216800,56.872216796875,-0.07412669062614441,0.03425624221563339,-0.00424161646515131
1665946399914297900,56.8822978515625,-0.05746835097670555,-0.0019560917280614376,0.030595459043979645
1665946399924379000,56.89237890625,-0.045871883630752563,-0.033730000257492065,0.06364422291517258
1665946399934460000,56.9024599609375,-0.03779877722263336,-0.05505286529660225,0.07995155453681946
1665946399944542000,56.9125419921875,-0.04340047016739845,-0.05314550921320915,0.06908159703016281
1665946399954622700,56.922622802734374,-0.04741651937365532,-0.04349048435688019,0.0375971756875515
1665946399964703700,56.93270385742188,-0.05227385833859444,-0.031001858413219452,0.0025928535033017397
1665946399974784800,56.94278466796875,-0.05660921707749367,-0.02484169974923134,-0.020254138857126236
1665946399984866800,56.95286669921875,-0.0572129562497139,-0.02749340981245041,-0.020869329571723938
1665946399994947800,56.96294775390625,-0.06429456919431686,-0.024889636784791946,-0.0001054611784638837
1665946400005028900,56.97302880859375,-0.06875722855329514,-0.020185429602861404,0.01158608216792345
1665946400015110000,56.98310986328125,-0.0692744106054306,-0.014071078039705753,0.022703981027007103
1665946400025191000,56.99319091796875,-0.07346303015947342,-0.010660633444786072,0.02822604589164257
1665946400035273000,57.00327294921875,-0.07762901484966278,-0.001814944320358336,0.03549833968281746
1665946400045354000,57.01335400390625,-0.07971373945474625,0.013689447194337845,0.03286873549222946
1665946400055435000,57.02343505859375,-0.07969589531421661,0.037106890231370926,0.026451313868165016
1665946400065515800,57.03351586914062,-0.08049777150154114,0.038307707756757736,0.027697674930095673
1665946400075596800,57.0435966796875,-0.07156952470541,0.020248280838131905,0.04391952231526375
1665946400085678800,57.05367895507813,-0.07209230214357376,0.00612313998863101,0.06373130530118942
1665946400095760000,57.063759765625,-0.06874897330999374,0.005661347880959511,0.06730926781892776
1665946400105841000,57.0738408203125,-0.060272395610809326,0.018015751615166664,0.05221739783883095
1665946400115922000,57.083921875,-0.053710367530584335,0.026498185470700264,0.01769137941300869
1665946400126003700,57.09400366210937,-0.05339398235082626,0.032397620379924774,-0.0059630838222801685
1665946400136084700,57.104084716796876,-0.05318119749426842,0.02155136503279209,-0.01906450465321541
1665946400146165800,57.11416577148437,-0.04982348158955574,0.010860903188586235,-0.01636672206223011
1665946400156246800,57.12424682617188,-0.045032989233732224,0.012982644140720367,-0.008772452361881733
1665946400166328800,57.13432885742188,-0.04212774708867073,0.014218883588910103,-0.001933721243403852
1665946400176409900,57.144409912109374,-0.03504427149891853,0.017978467047214508,-0.0007102650706656277
1665946400186491000,57.15449096679688,-0.03670315444469452,0.019057581201195717,0.004521248396486044
1665946400196572000,57.164572021484375,-0.03303012251853943,0.02430613897740841,0.001252484624274075
1665946400206653000,57.17465283203125,-0.031080687418580055,0.016352608799934387,-0.0031398669816553593
1665946400216735000,57.18473486328125,-0.026916835457086563,0.009851032868027687,-0.016687367111444473
1665946400226816000,57.19481591796875,-0.027001524344086647,0.0005989448982290924,-0.03527809679508209
1665946400236896800,57.20489672851563,-0.02809315361082554,-0.006419283337891102,-0.040161266922950745
1665946400246977800,57.214977783203125,-0.028314461931586266,-0.0007430219557136297,-0.042087532579898834
1665946400257059800,57.225059814453125,-0.03375104069709778,0.00022450447431765497,-0.03345223143696785
1665946400267140900,57.23514086914062,-0.03334304317831993,-0.01023000106215477,-0.024214526638388634
1665946400277222000,57.245221923828126,-0.04000147804617882,-0.012092082761228085,-0.01498454250395298
1665946400287303000,57.25530297851562,-0.04581116512417793,-0.004837632179260254,-0.0054424358531832695
1665946400297384700,57.265384765625,-0.04340100288391113,-0.001475657569244504,0.0011914982460439205
1665946400307465700,57.2754658203125,-0.04460794851183891,0.0029710223898291588,-0.003596865339204669
1665946400317546800,57.28554663085937,-0.04682982340455055,0.015090003609657288,-0.009004946798086166
1665946400327627800,57.295627685546876,-0.05182751268148422,0.030820496380329132,-0.0029577065724879503
1665946400337709000,57.305708984375,-0.05899008363485336,0.0454804003238678,0.0018809906905516982
1665946400347790800,57.31579077148437,-0.056722935289144516,0.052508480846881866,-0.01744663529098034
1665946400357871900,57.32587182617188,-0.05481664463877678,0.05181073397397995,-0.02953898347914219
1665946400367953000,57.335952880859374,-0.05675942078232765,0.03073820471763611,-0.026043318212032318
1665946400378034000,57.34603393554688,-0.05037608742713928,0.011755991727113724,-0.013139504007995129
1665946400388116000,57.35611596679688,-0.0505334809422493,-0.0022778017446398735,0.007114102132618427
1665946400398197000,57.366197021484375,-0.04421939328312874,0.00013528858835343271,0.019029883667826653
1665946400408277800,57.37627783203125,-0.0410800576210022,0.0027265443932265043,0.022826751694083214
1665946400418358800,57.38635888671875,-0.04181615635752678,0.01341753825545311,0.02081952802836895
1665946400428440800,57.39644091796875,-0.04219698905944824,0.0246675293892622,0.01685141772031784
1665946400438521900,57.40652197265625,-0.04180683568120003,0.05110180005431175,0.014109959825873375
1665946400448603000,57.416602783203125,-0.042686209082603455,0.10291626304388046,0.026765568181872368
1665946400458684000,57.42668383789062,-0.048058606684207916,0.142171248793602,0.06238747760653496
1665946400468766000,57.43676586914062,-0.04044915735721588,0.1722647100687027,0.12626765668392181
1665946400478846700,57.4468466796875,-0.03317286819219589,0.1676151007413864,0.20222793519496918
1665946400488927700,57.456927734375,-0.021257618442177773,0.15582367777824402,0.2999323904514313
1665946400499008800,57.4670087890625,-0.016748886555433273,0.08697644621133804,0.3268292546272278
1665946400509090800,57.4770908203125,-0.0017041567480191588,0.0033124396577477455,0.24205657839775085
1665946400519171800,57.487171875,0.022041652351617813,-0.005634183529764414,0.09073682874441147
1665946400529252900,57.4972529296875,0.04162893444299698,-0.016113189980387688,-0.04623514041304588
1665946400539334000,57.507333984375,0.05315083637833595,-0.03668690845370293,-0.13891901075839996
1665946400549416000,57.517416015625,0.03905072808265686,-0.029324332252144814,-0.18404068052768707
1665946400559497000,57.5274970703125,0.007031544111669064,-0.04038337618112564,-0.1785053014755249
1665946400569578000,57.537577880859374,-0.012790895998477936,-0.05811656638979912,-0.1439710259437561
1665946400579658800,57.54765869140625,-0.02485954388976097,-0.09325431287288666,-0.0927315354347229
