time,seconds_elapsed,z,y,x
1665946343053600000,0.02160009765625,0.5015376210212708,-0.34767499566078186,-0.023209132254123688
1665946343063682000,0.03168212890625,0.3881092965602875,-0.1524868607521057,-0.1276090294122696
1665946343073764000,0.04176416015625,0.3678964376449585,-0.03442263975739479,-0.10698304325342178
1665946343083846100,0.05184619140625,0.3372674286365509,0.10086194425821304,-0.07003088295459747
1665946343093928200,0.06192822265625,0.25229933857917786,0.3035332262516022,-0.0736028403043747
1665946343104009200,0.07200927734375,0.2680830955505371,0.3920913338661194,-0.14157310128211975
1665946343114091300,0.08209130859375,0.34690219163894653,0.47079604864120483,-0.2485383003950119
1665946343124173000,0.092173095703125,0.4257197976112366,0.6257222294807434,-0.38159865140914917
1665946343134255000,0.102255126953125,0.4608266055583954,0.8898198008537292,-0.5136619210243225
1665946343144337200,0.112337158203125,0.4470665752887726,1.1272963285446167,-0.6039151549339294
1665946343154418000,0.12241796875,0.40679213404655457,1.2358399629592896,-0.6466771960258484
1665946343164500000,0.1325,0.3879002034664154,1.0839073657989502,-0.6300390958786011
1665946343174582000,0.14258203125,0.37751248478889465,0.7749188542366028,-0.528214156627655
1665946343184664000,0.1526640625,0.46392035484313965,0.532967209815979,-0.41470736265182495
1665946343194746000,0.16274609375,0.578258752822876,0.3738975524902344,-0.371515154838562
1665946343204827100,0.1728271484375,0.578266441822052,0.21706347167491913,-0.40006503462791443
1665946343214909200,0.1829091796875,0.4330483675003052,-0.16143713891506195,-0.4237935543060303
1665946343224991000,0.192990966796875,0.26009950041770935,-0.5762689709663391,-0.3766971528530121
1665946343235073000,0.203072998046875,0.18780283629894257,-0.8793591260910034,-0.2786712646484375
1665946343245155000,0.213155029296875,0.1123456358909607,-1.091981053352356,-0.14292514324188232
1665946343255236000,0.223236083984375,-0.0382060781121254,-1.2035716772079468,0.04123708978295326
1665946343265318100,0.233318115234375,-0.20593754947185516,-1.0717533826828003,0.23817172646522522
1665946343275400200,0.243400146484375,-0.3311823308467865,-0.7478410601615906,0.3940477967262268
1665946343285482200,0.253482177734375,-0.3598443269729614,-0.41026514768600464,0.4465829133987427
1665946343295564300,0.263564208984375,-0.3356366753578186,-0.16348035633563995,0.4090639650821686
1665946343305645000,0.27364501953125,-0.29834094643592834,0.05877560377120972,0.37700214982032776
1665946343315727000,0.28372705078125,-0.25924012064933777,0.26293662190437317,0.37473064661026
1665946343325809000,0.293808837890625,-0.2977757751941681,0.22438418865203857,0.356682687997818
1665946343335891000,0.303890869140625,-0.32477277517318726,-0.025371957570314407,0.333800345659256
1665946343345973000,0.313972900390625,-0.2858184576034546,-0.26941096782684326,0.3018091320991516
1665946343356054000,0.324053955078125,-0.2647504210472107,-0.46492400765419006,0.21579812467098236
1665946343366136000,0.334135986328125,-0.21442042291164398,-0.5243476033210754,0.007715768180787563
1665946343376217600,0.344217529296875,-0.020013732835650444,-0.534567654132843,-0.2315940260887146
1665946343386299600,0.354299560546875,0.22395658493041992,-0.5601094961166382,-0.4539267122745514
1665946343396381700,0.364381591796875,0.3430723547935486,-0.5743018388748169,-0.6025108098983765
1665946343406462500,0.37446240234375,0.3225468397140503,-0.7580788135528564,-0.6839351058006287
1665946343416544500,0.38454443359375,0.2611556649208069,-0.688370406627655,-0.6231479644775391
1665946343426626600,0.39462646484375,0.19088630378246307,-0.7470816969871521,-0.51554936170578
1665946343436708400,0.404708251953125,0.09374973177909851,-0.634768545627594,-0.4275907874107361
1665946343446790400,0.414790283203125,0.05432109907269478,-0.5681019425392151,-0.33965960144996643
1665946343456871400,0.424871337890625,0.05867160111665726,-0.5180574655532837,-0.19077371060848236
1665946343466953500,0.434953369140625,0.05568327009677887,-0.5113793611526489,0.06293632090091705
1665946343477035500,0.445035400390625,-0.09665705263614655,-0.6819548010826111,0.3629421889781952
1665946343487117600,0.45511767578125,-0.401716023683548,-1.0443564653396606,0.6016599535942078
1665946343497199600,0.46519970703125,-0.7507279515266418,-1.4128302335739136,0.6779104471206665
1665946343507281700,0.47528173828125,-1.0415335893630981,-1.5031499862670898,0.6389755606651306
1665946343517362700,0.48536279296875,-1.1653974056243896,-1.4083987474441528,0.5599472522735596
1665946343527444500,0.495444580078125,-1.1276596784591675,-1.3449968099594116,0.43159377574920654
1665946343537526500,0.505526611328125,-1.028933048248291,-1.298887014389038,0.2637588679790497
1665946343547608600,0.515608642578125,-0.9590200185775757,-1.2659692764282227,0.09627586603164673
1665946343557690600,0.525690673828125,-0.8837766051292419,-1.1590652465820312,-0.03683410584926605
1665946343567771400,0.535771484375,-0.8413037061691284,-1.11835777759552,-0.10706140100955963
1665946343577853400,0.545853515625,-0.8798303604125977,-1.2456958293914795,-0.13017158210277557
1665946343587935500,0.555935546875,-0.9349282383918762,-1.366199016571045,-0.1388697326183319
1665946343598017500,0.566017578125,-0.9355435371398926,-1.2484891414642334,-0.19849847257137299
1665946343608099600,0.576099609375,-0.6626036167144775,-0.958845853805542,-0.3065820336341858
1665946343618180600,0.5861806640625,-0.1224595382809639,-0.6822709441184998,-0.4631785452365875
1665946343628262400,0.596262451171875,0.24194878339767456,-0.36205244064331055,-0.6768524646759033
1665946343638344400,0.606344482421875,0.30970144271850586,-0.14722149074077606,-0.8724639415740967
1665946343648426500,0.616426513671875,0.1898179054260254,-0.03494822606444359,-0.9544724822044373
1665946343658508500,0.626508544921875,-0.08424122631549835,0.05019678175449371,-1.0017461776733398
1665946343668589600,0.636589599609375,-0.34432047605514526,-0.08610726147890091,-1.0693273544311523
1665946343678671600,0.646671630859375,-0.5338709950447083,-0.45465654134750366,-1.1718682050704956
1665946343688753700,0.656753662109375,-0.6494356989860535,-0.7197042107582092,-1.312767744064331
1665946343698835700,0.666835693359375,-0.6791560649871826,-0.6655820608139038,-1.3763011693954468
1665946343708917500,0.67691748046875,-0.6954895257949829,-0.43231895565986633,-1.2732096910476685
1665946343718998500,0.68699853515625,-0.6619840860366821,-0.08163139969110489,-1.0361486673355103
1665946343729080300,0.697080322265625,-0.5126678347587585,0.13632196187973022,-0.7958175539970398
1665946343739162400,0.707162353515625,-0.2352607548236847,0.10317590087652206,-0.6427221894264221
1665946343749244400,0.717244384765625,0.20988263189792633,0.054316479712724686,-0.5961493849754333
1665946343759326500,0.727326416015625,0.6400704383850098,0.11104439944028854,-0.5932734608650208
1665946343769407500,0.737407470703125,0.6039190888404846,0.17322975397109985,-0.6429523229598999
1665946343779489500,0.747489501953125,0.31845998764038086,0.08263424038887024,-0.7226639986038208
1665946343789571600,0.757571533203125,0.09782614558935165,-0.05533507838845253,-0.7849708199501038
1665946343799653600,0.767653564453125,0.0067123472690582275,-0.13065972924232483,-0.7552023530006409
1665946343809735400,0.7777353515625,0.01594233140349388,-0.10550590604543686,-0.654625415802002
1665946343819816700,0.787816650390625,0.04815951734781265,-0.001769958296790719,-0.5363595485687256
1665946343829898500,0.7978984375,0.06032270938158035,0.18138867616653442,-0.4003431499004364
1665946343839980500,0.80798046875,0.021500686183571815,0.2347937524318695,-0.26543349027633667
1665946343850062600,0.8180625,-0.05899735167622566,0.18005353212356567,-0.1560710370540619
1665946343860144600,0.82814453125,-0.14323541522026062,0.07945238798856735,-0.04649251699447632
1665946343870225400,0.838225341796875,-0.15391629934310913,-0.04579288139939308,0.05391211807727814
1665946343880307500,0.848307373046875,-0.1756698340177536,-0.20557324588298798,0.12043353170156479
1665946343890389500,0.858389404296875,-0.24212156236171722,-0.4036328196525574,0.14225174486637115
1665946343900471600,0.868471435546875,-0.30308204889297485,-0.5479562878608704,0.1358630657196045
1665946343910553300,0.87855322265625,-0.3556930720806122,-0.5833851099014282,0.1376873254776001
1665946343920635400,0.888635498046875,-0.3892269730567932,-0.5487671494483948,0.1408112794160843
1665946343930716400,0.89871630859375,-0.384685754776001,-0.5424836874008179,0.1321679949760437
1665946343940798500,0.908798583984375,-0.36092609167099,-0.539337158203125,0.12065429985523224
1665946343950880500,0.918880615234375,-0.3014768660068512,-0.48682522773742676,0.09428422152996063
1665946343960962600,0.928962646484375,-0.21034018695354462,-0.40708696842193604,0.05056000500917435
1665946343971044600,0.939044677734375,-0.15646709501743317,-0.4127957224845886,-0.012290331535041332
1665946343981125600,0.949125732421875,-0.16628634929656982,-0.46104779839515686,-0.06998270750045776
1665946343991207700,0.959207763671875,-0.17310884594917297,-0.4012387692928314,-0.0548064224421978
1665946344001289700,0.969289794921875,-0.1289641112089157,-0.2947629690170288,0.012519598007202148
1665946344011371500,0.97937158203125,-0.057843055576086044,-0.25774556398391724,0.071165069937706
1665946344021453600,0.98945361328125,-0.019769910722970963,-0.29792165756225586,0.11574260890483856
1665946344031534300,0.999534423828125,-0.016881980001926422,-0.3742790222167969,0.14200137555599213
1665946344041616400,1.009616455078125,-0.018601583316922188,-0.48130905628204346,0.1340542435646057
1665946344051698400,1.019698486328125,0.004018775187432766,-0.5637863874435425,0.10384493321180344
1665946344061780500,1.029780517578125,0.05973340570926666,-0.5362234115600586,0.07687636464834213
1665946344071862500,1.039862548828125,0.11224614828824997,-0.448025643825531,0.046453479677438736
1665946344081943600,1.049943603515625,0.13257938623428345,-0.32071349024772644,0.02625846490263939
1665946344092025600,1.060025634765625,0.12278933823108673,-0.18332448601722717,-0.004364159889519215
1665946344102107600,1.070107666015625,0.08968106657266617,-0.17663997411727905,-0.05407748371362686
1665946344112189400,1.080189453125,0.04993631690740585,-0.1870231032371521,-0.10942862182855606
1665946344122271500,1.090271484375,0.05037648230791092,-0.13999389111995697,-0.12752369046211243
1665946344132352500,1.1003525390625,0.09654344618320465,-0.0869184285402298,-0.10311715304851532
1665946344142434600,1.1104345703125,0.13436973094940186,-0.06757955998182297,-0.05178176611661911
1665946344152516600,1.1205166015625,0.15697863698005676,-0.04005872458219528,0.0072048502042889595
1665946344162598700,1.1305986328125,0.192337304353714,-0.07792729139328003,0.052881959825754166
1665946344172680700,1.1406806640625,0.1894264817237854,-0.17950211465358734,0.0615827739238739
1665946344182762500,1.150762451171875,0.14323469996452332,-0.21425151824951172,0.0362386591732502
1665946344192843500,1.160843505859375,0.11864891648292542,-0.17756514251232147,-0.028352316468954086
1665946344202925600,1.170925537109375,0.13478465378284454,-0.0633215382695198,-0.12079696357250214
1665946344213007400,1.18100732421875,0.15578235685825348,0.060574039816856384,-0.21991822123527527
1665946344223089400,1.19108935546875,0.17423462867736816,0.12780790030956268,-0.2782965302467346
1665946344233170400,1.20117041015625,0.19920068979263306,0.10599474608898163,-0.257312148809433
1665946344243252500,1.21125244140625,0.17983850836753845,0.021878361701965332,-0.13251911103725433
1665946344253334500,1.22133447265625,0.13504520058631897,-0.05490536615252495,0.07305321842432022
1665946344263416600,1.23141650390625,0.13162073493003845,-0.15491558611392975,0.2754075229167938
1665946344273498600,1.24149853515625,0.17562973499298096,-0.26567351818084717,0.4001971185207367
1665946344283580400,1.251580322265625,0.2642887234687805,-0.3966265320777893,0.4339308738708496
1665946344293661700,1.26166162109375,0.3124929964542389,-0.4057992696762085,0.41584134101867676
1665946344303743500,1.271743408203125,0.277252197265625,-0.32899415493011475,0.3930123448371887
1665946344313825500,1.281825439453125,0.2715061604976654,-0.2779032588005066,0.40301066637039185
1665946344323907600,1.291907470703125,0.29184263944625854,-0.33860886096954346,0.4469088315963745
1665946344333989600,1.30198974609375,0.3197653591632843,-0.2579265534877777,0.4947299063205719
1665946344344070400,1.3120703125,0.36786410212516785,-0.16329848766326904,0.4488520324230194
1665946344354152400,1.32215234375,0.4195970892906189,-0.08915741741657257,0.35250526666641235
1665946344364234500,1.332234375,0.39298558235168457,0.013963766396045685,0.25598564743995667
1665946344374317600,1.342317626953125,0.317606657743454,0.16053830087184906,0.12488620728254318
1665946344384399600,1.352399658203125,0.25412824749946594,0.2066756784915924,-0.04104506969451904
1665946344394480600,1.362480712890625,0.18824216723442078,0.1434277445077896,-0.18997356295585632
1665946344404562700,1.372562744140625,0.09543337672948837,0.011110632680356503,-0.27647942304611206
1665946344414644700,1.382644775390625,0.02295331098139286,-0.0967940017580986,-0.2601262927055359
1665946344424726800,1.392726806640625,0.03568633645772934,-0.23213259875774384,-0.20027610659599304
1665946344434808600,1.40280859375,0.05358278006315231,-0.40019989013671875,-0.1520473212003708
1665946344444889600,1.4128896484375,0.0638979971408844,-0.5022600293159485,-0.12269973009824753
1665946344454971600,1.4229716796875,0.11257524788379669,-0.49481624364852905,-0.13312894105911255
1665946344465053400,1.433053466796875,0.20583316683769226,-0.30619412660598755,-0.1887468546628952
1665946344475135500,1.443135498046875,0.27141138911247253,-0.0998539924621582,-0.23708055913448334
1665946344485217500,1.453217529296875,0.2405649721622467,-0.06293565034866333,-0.23218569159507751
1665946344495298600,1.463298583984375,0.17437823116779327,-0.03115055523812771,-0.21161648631095886
1665946344505380600,1.473380615234375,0.09203100204467773,0.019702043384313583,-0.21922726929187775
1665946344515462700,1.483462646484375,0.043727122247219086,0.14753270149230957,-0.2518312931060791
1665946344525544700,1.493544677734375,0.039088111370801926,0.27610668540000916,-0.2699171304702759
1665946344535626800,1.503626708984375,0.07389882206916809,0.3367588222026825,-0.23106959462165833
1665946344545708500,1.51370849609375,0.13573528826236725,0.1881944090127945,-0.15287066996097565
1665946344555789800,1.523789794921875,0.1807807832956314,-0.10974248498678207,-0.03345266357064247
1665946344565871600,1.53387158203125,0.2235681414604187,-0.42654949426651,0.13130879402160645
1665946344575953700,1.54395361328125,0.3264305889606476,-0.696350634098053,0.3153737187385559
1665946344586035500,1.554035400390625,0.5041683912277222,-0.9822399020195007,0.41304364800453186
1665946344596117500,1.564117431640625,0.6988460421562195,-1.3682852983474731,0.32938921451568604
1665946344606198500,1.574198486328125,0.9170305728912354,-1.998274803161621,0.023899856954813004
1665946344616280600,1.584280517578125,1.091835856437683,-2.365520477294922,-0.3055363595485687
1665946344626362600,1.594362548828125,1.1204570531845093,-2.4881415367126465,-0.5187267065048218
1665946344636444700,1.604444580078125,1.0927060842514038,-2.718820333480835,-0.5665642619132996
1665946344646526500,1.6145263671875,1.0652711391448975,-3.46223521232605,-0.3112737834453583
1665946344656607700,1.624607666015625,0.9678335785865784,-4.211735725402832,0.34479835629463196
1665946344666689500,1.634689453125,0.8991327881813049,-4.263700485229492,1.0144490003585815
1665946344676771600,1.644771484375,0.9193717241287231,-4.353490352630615,1.6349282264709473
1665946344686853600,1.654853515625,1.0411938428878784,-4.928314685821533,2.1660075187683105
1665946344696935700,1.664935791015625,1.2385550737380981,-5.793745040893555,2.4982948303222656
1665946344707016700,1.6750166015625,1.4512206315994263,-6.112112045288086,2.1606693267822266
1665946344717098800,1.6850986328125,1.3955260515213013,-6.368894100189209,1.4970425367355347
1665946344727180800,1.695180908203125,1.1858781576156616,-6.7452569007873535,0.5807682275772095
1665946344737262600,1.7052626953125,0.8586645126342773,-7.1791791915893555,-0.433341920375824
1665946344747344400,1.715344482421875,0.46850425004959106,-7.225095748901367,-1.4832165241241455
1665946344757425700,1.72542578125,0.17334239184856415,-6.93660831451416,-2.256866931915283
1665946344767507500,1.735507568359375,-0.016665726900100708,-6.469557762145996,-2.548548460006714
1665946344777589500,1.745589599609375,-0.0582595057785511,-5.848952293395996,-2.379178762435913
1665946344787671600,1.755671630859375,0.06188279017806053,-4.865649223327637,-1.9715499877929688
1665946344797753600,1.765753662109375,0.28372570872306824,-3.7708890438079834,-1.465872049331665
1665946344807834600,1.775834716796875,0.39632007479667664,-2.852811813354492,-0.8861770629882812
1665946344817916700,1.785916748046875,0.29213881492614746,-2.0305655002593994,-0.49163904786109924
1665946344827998700,1.795998779296875,0.1335265338420868,-1.4247910976409912,-0.274130254983902
1665946344838080800,1.806080810546875,0.061167649924755096,-0.8933849930763245,-0.21836072206497192
1665946344848162600,1.81616259765625,0.058385640382766724,-0.5657105445861816,-0.4128662943840027
1665946344858244600,1.82624462890625,-0.030493896454572678,-0.5069212913513184,-0.8167799115180969
1665946344868326700,1.83632666015625,-0.22397632896900177,-0.6396617293357849,-1.3361037969589233
1665946344878407700,1.84640771484375,-0.39456644654273987,-0.8992863893508911,-1.853679895401001
1665946344888489700,1.85648974609375,-0.3698655664920807,-1.3022328615188599,-2.179023504257202
1665946344898571500,1.866571533203125,-0.21986623108386993,-1.810294508934021,-2.228458881378174
1665946344908653600,1.876653564453125,-0.13923245668411255,-2.1888468265533447,-2.1196482181549072
1665946344918735600,1.886735595703125,-0.23576165735721588,-2.385371685028076,-1.8920997381210327
1665946344928816600,1.896816650390625,-0.49095597863197327,-2.6198885440826416,-1.5789631605148315
1665946344938898700,1.906898681640625,-0.9635784029960632,-2.801116704940796,-1.3550305366516113
1665946344948980500,1.91698046875,-1.5421786308288574,-2.620117664337158,-1.296260118484497
1665946344959062500,1.9270625,-1.8037573099136353,-2.408621072769165,-1.2605361938476562
1665946344969144600,1.93714453125,-1.6567833423614502,-2.5877585411071777,-1.1551592350006104
1665946344979225600,1.9472255859375,-1.4836065769195557,-2.890718698501587,-1.0933040380477905
1665946344989307600,1.9573076171875,-1.5231565237045288,-3.3168137073516846,-1.165972352027893
1665946344999389700,1.9673896484375,-1.8677058219909668,-4.041807174682617,-1.4069466590881348
1665946345009471700,1.9774716796875,-1.9676002264022827,-4.857580184936523,-1.7449990510940552
1665946345019553500,1.987553466796875,-0.7869162559509277,-4.509986877441406,-2.022512912750244
1665946345029634800,1.997634765625,0.5911579132080078,-3.2385528087615967,-2.3401260375976562
1665946345039716600,2.007716552734375,2.0211830139160156,-2.280877113342285,-2.4931554794311523
1665946345049798400,2.01779833984375,2.7284905910491943,-2.1095330715179443,-2.477346897125244
1665946345059880400,2.02788037109375,2.4886868000030518,-3.099349021911621,-3.0326199531555176
1665946345069962500,2.03796240234375,1.620958924293518,-4.326144695281982,-3.9907288551330566
1665946345080043500,2.04804345703125,0.2679750621318817,-4.605803966522217,-4.958955764770508
1665946345090125600,2.05812548828125,-1.072985291481018,-4.872831344604492,-5.312861442565918
1665946345100207600,2.06820751953125,-2.6962695121765137,-4.5645246505737305,-5.423261642456055
1665946345110289700,2.07828955078125,-3.890017509460449,-3.7629692554473877,-4.748485088348389
1665946345120371500,2.088371337890625,-4.6360554695129395,-3.189439296722412,-4.121592998504639
1665946345130452700,2.09845263671875,-4.838131427764893,-2.505979299545288,-4.00911283493042
1665946345140534500,2.108534423828125,-4.354183673858643,-2.3348281383514404,-4.035740852355957
1665946345150616600,2.118616455078125,-3.115623712539673,-2.3883395195007324,-3.845790386199951
1665946345160698600,2.12869873046875,-1.2986944913864136,-2.191319465637207,-2.9695427417755127
1665946345170780700,2.13878076171875,0.28852567076683044,-1.3852280378341675,-1.2970858812332153
1665946345180861700,2.14886181640625,0.7208943963050842,-0.9520186185836792,-0.09902135282754898
1665946345190943700,2.15894384765625,0.6071495413780212,-1.135240077972412,-0.3581552505493164
1665946345201025800,2.16902587890625,0.12229439616203308,-1.0187922716140747,-0.8924399018287659
1665946345211107600,2.179107666015625,-0.49322351813316345,-0.6496909260749817,-1.0910450220108032
1665946345221188600,2.189188720703125,-0.8824788928031921,-0.002216306049376726,-1.0463088750839233
1665946345231270700,2.199270751953125,-1.0924019813537598,0.35867834091186523,-0.8190305829048157
1665946345241352400,2.2093525390625,-1.2825796604156494,0.2273983359336853,-0.5638694167137146
1665946345251434500,2.2194345703125,-1.5744186639785767,-0.5702812075614929,-0.5311982035636902
1665946345261515500,2.229515625,-1.858987808227539,-2.361006498336792,-0.6765133142471313
1665946345271597600,2.23959765625,-2.0181057453155518,-5.766032695770264,-1.49919855594635
1665946345281679600,2.2496796875,-2.0812089443206787,-9.735526084899902,-2.8874800205230713
1665946345291761700,2.25976171875,-1.857923984527588,-12.747688293457031,-4.496811389923096
1665946345301843700,2.26984375,-1.3960903882980347,-14.839703559875488,-5.72288179397583
1665946345311924700,2.2799248046875,-1.093828558921814,-15.768098831176758,-6.714593887329102
1665946345322006800,2.2900068359375,-1.278164029121399,-10.447922706604004,-4.820626735687256
1665946345332088800,2.3000888671875,-0.838654100894928,-0.3736809492111206,-1.916667103767395
1665946345342170600,2.310170654296875,-0.5097159147262573,6.156801223754883,-0.6787872910499573
1665946345352252700,2.320252685546875,-0.1422005444765091,6.938282489776611,-0.736475944519043
1665946345362333400,2.33033349609375,0.09073496609926224,5.169057846069336,-1.7421159744262695
1665946345372415700,2.340415771484375,0.07755986601114273,3.733879566192627,-2.953791856765747
1665946345382497800,2.350497802734375,-0.14779922366142273,2.8805880546569824,-3.9486701488494873
1665946345392579800,2.360579833984375,-0.5066540241241455,2.111112356185913,-4.6035566329956055
1665946345402660900,2.370660888671875,-0.9687390923500061,1.0615382194519043,-4.952414512634277
1665946345412742700,2.38074267578125,-1.4138981103897095,-0.3190672695636749,-4.975305557250977
1665946345422824700,2.39082470703125,-1.6386263370513916,-1.4428504705429077,-3.7950243949890137
1665946345432906800,2.40090673828125,-1.621060848236084,-1.3422354459762573,-1.2606135606765747
1665946345442988500,2.410988525390625,-1.5830333232879639,-1.185960292816162,0.07853824645280838
1665946345453069600,2.421069580078125,-1.5207350254058838,-1.6651357412338257,-0.590832531452179
1665946345463151600,2.431151611328125,-1.316340684890747,-2.2131423950195312,-2.3351047039031982
1665946345473233700,2.441233642578125,-1.028324007987976,-2.270019292831421,-4.006043434143066
1665946345483315700,2.451315673828125,-0.7510588765144348,-0.9709141254425049,-4.516357898712158
1665946345493396700,2.461396728515625,-0.4151260554790497,0.5298190712928772,-3.5227012634277344
1665946345503478800,2.471478759765625,0.059891872107982635,1.093990445137024,-1.6471446752548218
1665946345513560800,2.481560791015625,0.5916543006896973,1.0254127979278564,-0.03670391067862511
1665946345523643000,2.491642822265625,0.9789168238639832,0.7587507367134094,0.676866888999939
1665946345533724700,2.501724609375,0.990104615688324,0.4304431080818176,0.48517709970474243
1665946345543806000,2.511805908203125,0.6797611713409424,-0.059464287012815475,-0.18386705219745636
1665946345553887700,2.5218876953125,0.2563738524913788,-0.3320940136909485,-0.7794731855392456
1665946345563969500,2.531969482421875,0.2429821491241455,-0.03359599784016609,-1.1610252857208252
1665946345574051600,2.542051513671875,0.23195341229438782,0.9949188232421875,-1.3232775926589966
1665946345584132600,2.552132568359375,0.17020776867866516,1.8514777421951294,-1.2828129529953003
1665946345594214700,2.562214599609375,0.020250167697668076,0.9940759539604187,-1.6274726390838623
1665946345604296700,2.572296630859375,-0.576903760433197,1.0797817707061768,-1.5595561265945435
1665946345614378800,2.582378662109375,0.025019697844982147,1.3176666498184204,-1.0368715524673462
1665946345624460800,2.592460693359375,0.35307666659355164,1.7854993343353271,-1.1060082912445068
1665946345634541800,2.602541748046875,0.634723424911499,2.237293243408203,-0.9399028420448303
1665946345644624000,2.612623779296875,0.8377199172973633,2.432279586791992,-0.5447640419006348
1665946345654705700,2.62270556640625,0.8397426605224609,2.5416364669799805,-0.18596209585666656
1665946345664787700,2.63278759765625,0.7097103595733643,2.0128369331359863,0.18497948348522186
1665946345674868700,2.64286865234375,0.46670347452163696,1.1918896436691284,0.3119994103908539
1665946345684950800,2.65295068359375,0.2569587826728821,0.4834408760070801,0.5685800313949585
1665946345695032800,2.66303271484375,0.04140758886933327,0.42045482993125916,0.487038791179657
1665946345705115000,2.673114990234375,-0.1102847307920456,0.34485647082328796,0.4224123954772949
1665946345715195600,2.683195556640625,-0.10429221391677856,0.45635706186294556,0.4044695496559143
1665946345725277700,2.693277587890625,-0.374580442905426,1.1367164850234985,0.3966822028160095
1665946345735359700,2.70335986328125,-2.4037673473358154,2.301008939743042,-0.24571651220321655
1665946345745441800,2.71344189453125,-3.1341195106506348,3.253112316131592,-0.8262448906898499
1665946345755523600,2.723523681640625,-2.3959853649139404,3.103123664855957,-0.10554137825965881
1665946345765604600,2.7336044921875,-1.6514040231704712,2.1329538822174072,0.5818809866905212
1665946345775686700,2.743686767578125,-1.2759124040603638,1.8071064949035645,1.2097058296203613
1665946345785768700,2.753768798828125,-0.7020231485366821,1.693052887916565,1.605509877204895
1665946345795850800,2.763850830078125,-0.21544349193572998,1.829206109046936,1.6789257526397705
1665946345805931800,2.773931884765625,0.4398898780345917,1.9148147106170654,1.8883782625198364
1665946345816013800,2.784013916015625,0.7728124856948853,1.1276675462722778,1.774151086807251
1665946345826095900,2.794095947265625,1.2029470205307007,1.0024268627166748,1.4594179391860962
1665946345836178000,2.804177978515625,1.3775324821472168,0.9599759578704834,0.9760083556175232
1665946345846259700,2.814259765625,0.7400674223899841,0.6857894062995911,0.3243615925312042
1665946345856340700,2.8243408203125,0.4891359508037567,0.7784297466278076,0.07233038544654846
1665946345866422500,2.834422607421875,0.2388928085565567,0.8634577989578247,-0.09196721017360687
1665946345876504600,2.844504638671875,0.10562917590141296,1.5726183652877808,0.2763356864452362
1665946345886586600,2.854586669921875,-0.11187305301427841,1.8592458963394165,0.4410002529621124
1665946345896667600,2.864667724609375,-0.24087399244308472,2.104750871658325,0.4485704302787781
1665946345906749700,2.874749755859375,-0.35508817434310913,2.1866416931152344,0.33876243233680725
1665946345916831700,2.884831787109375,-0.3834725022315979,2.2290825843811035,0.25132182240486145
1665946345926913800,2.894913818359375,-0.42588546872138977,2.3038816452026367,0.21175576746463776
1665946345936994800,2.904994873046875,-0.4189891815185547,2.225466251373291,0.1182304173707962
1665946345947076900,2.915076904296875,-0.38263648748397827,2.234034776687622,-0.005357564426958561
1665946345957159000,2.925158935546875,-0.3740021884441376,2.2143054008483887,-0.1097891554236412
1665946345967240700,2.93524072265625,-0.3624139726161957,2.449244737625122,-0.14594370126724243
1665946345977321700,2.94532177734375,-0.30356544256210327,2.3733253479003906,-0.14610348641872406
1665946345987403500,2.955403564453125,-0.2362060844898224,2.187638759613037,-0.16872172057628632
1665946345997485600,2.965485595703125,-0.21637021005153656,2.161997079849243,-0.17631039023399353
1665946346007567600,2.975567626953125,-0.0646858736872673,2.020219087600708,-0.25995177030563354
1665946346017649700,2.985649658203125,-0.03305741399526596,1.9110268354415894,-0.31837835907936096
1665946346027730700,2.995730712890625,-0.01829897053539753,2.116257667541504,-0.3329716920852661
1665946346037812700,3.005812744140625,-0.02784852683544159,2.169508457183838,-0.2469542771577835
1665946346047894800,3.015894775390625,-0.03597889095544815,2.0863587856292725,-0.19817395508289337
1665946346057976800,3.025976806640625,0.03718443959951401,2.1181252002716064,-0.15894530713558197
1665946346068057900,3.036057861328125,0.16995100677013397,2.0237910747528076,-0.06218067556619644
1665946346078140000,3.046139892578125,0.15182891488075256,1.8029804229736328,0.00658718915656209
1665946346088221700,3.0562216796875,0.18542441725730896,1.6633367538452148,0.03402626886963844
1665946346098303700,3.0663037109375,0.2695183753967285,1.6793248653411865,0.10742751508951187
1665946346108384800,3.076384765625,0.31026262044906616,1.677333116531372,0.2275448590517044
1665946346118466600,3.086466552734375,0.5202805399894714,1.7067724466323853,0.2302170693874359
1665946346128547600,3.096547607421875,0.6303322315216064,1.67234206199646,0.36710700392723083
1665946346138629600,3.106629638671875,0.6519523859024048,1.8444714546203613,0.5388224124908447
1665946346148711700,3.116711669921875,0.6703076958656311,1.911219835281372,0.6238132119178772
1665946346158793700,3.126793701171875,0.6316497921943665,2.0192432403564453,0.5833723545074463
1665946346168874800,3.136874755859375,0.5300678014755249,2.2009341716766357,0.43861648440361023
1665946346178956800,3.146956787109375,0.41402962803840637,2.293938398361206,0.24449673295021057
1665946346189038800,3.157038818359375,0.28618350625038147,2.222146987915039,0.08467244356870651
1665946346199120600,3.16712060546875,0.15454213321208954,2.1838314533233643,-0.06022828817367554
1665946346209202700,3.17720263671875,0.07042699307203293,2.279066324234009,-0.21523436903953552
1665946346219283700,3.18728369140625,0.04579886421561241,2.4102487564086914,-0.3207961618900299
1665946346229365800,3.19736572265625,-0.01786746457219124,2.5441737174987793,-0.37155628204345703
1665946346239447800,3.20744775390625,0.12596504390239716,2.5679781436920166,-0.25505825877189636
1665946346249529900,3.21752978515625,0.22728021442890167,2.2951717376708984,-0.0057783955708146095
1665946346259610600,3.227610595703125,0.2869470417499542,2.058053731918335,0.17057722806930542
1665946346269692700,3.237692626953125,0.32263100147247314,1.8392016887664795,0.20818853378295898
1665946346279774700,3.247774658203125,0.3076637387275696,1.6322044134140015,0.1737942099571228
1665946346289856800,3.257856689453125,0.2707776427268982,1.4936449527740479,0.06521633267402649
1665946346299937800,3.267937744140625,0.24792271852493286,1.4050588607788086,-0.05933878570795059
1665946346310019800,3.278019775390625,0.2108725607395172,1.2589842081069946,-0.1536375880241394
1665946346320101600,3.2881015625,0.16233903169631958,1.1490273475646973,-0.19772329926490784
1665946346330183700,3.29818359375,0.10573593527078629,1.1010090112686157,-0.19685591757297516
1665946346340264700,3.3082646484375,0.04036586731672287,1.0839112997055054,-0.17915689945220947
1665946346350346800,3.3183466796875,-0.01337006688117981,1.0791888236999512,-0.14772653579711914
1665946346360428800,3.3284287109375,-0.05856391042470932,1.137725830078125,-0.1268063485622406
1665946346370510800,3.3385107421875,-0.1007145568728447,1.1663953065872192,-0.12885457277297974
1665946346380590000,3.348590087890625,-0.13777926564216614,1.1680634021759033,-0.1430855542421341
1665946346390672100,3.358672119140625,-0.17358919978141785,1.2180289030075073,-0.18849778175354004
1665946346400754200,3.368754150390625,-0.19906578958034515,1.2805202007293701,-0.25667688250541687
1665946346410836200,3.378836181640625,-0.2320205420255661,1.2601643800735474,-0.3114716708660126
1665946346420917200,3.388917236328125,-0.29306820034980774,1.3706514835357666,-0.3824996054172516
1665946346430999300,3.398999267578125,-0.3583766520023346,1.6084693670272827,-0.43769147992134094
1665946346441081300,3.409081298828125,-0.40066802501678467,1.7132433652877808,-0.4564681947231293
1665946346451163400,3.419163330078125,-0.44405677914619446,1.6975860595703125,-0.43821650743484497
1665946346461244400,3.429244384765625,-0.5744917392730713,1.6361349821090698,-0.41748911142349243
1665946346471326500,3.439326416015625,-0.8861585259437561,1.465770959854126,-0.43199509382247925
1665946346481408300,3.449408203125,-1.0495405197143555,1.308713436126709,-0.5107476115226746
1665946346491490300,3.459490234375,-1.122509241104126,1.1518290042877197,-0.5389702320098877
1665946346501571000,3.469571044921875,-1.150362491607666,1.0248453617095947,-0.5557992458343506
1665946346511653000,3.479653076171875,-1.0732420682907104,0.9219669699668884,-0.5802745223045349
1665946346521735200,3.489735107421875,-0.8415625691413879,0.6838863492012024,-0.5683833956718445
1665946346531817200,3.499817138671875,-0.7097797989845276,0.4245951175689697,-0.5692177414894104
1665946346541899300,3.509899169921875,-0.6025944948196411,0.47646892070770264,-0.6466853618621826
1665946346551980300,3.519980224609375,-0.7097619771957397,0.656130313873291,-0.7285216450691223
1665946346562062300,3.530062255859375,-0.8128211498260498,0.7348854541778564,-0.775094211101532
1665946346572144400,3.540144287109375,-0.6390594840049744,1.00779128074646,-0.8346720933914185
1665946346582226200,3.55022607421875,-0.547235906124115,1.3419803380966187,-0.8608655333518982
1665946346592307500,3.560307373046875,-0.36832550168037415,1.5729900598526,-0.8563682436943054
1665946346602389200,3.57038916015625,-0.1820548176765442,1.5945101976394653,-0.7244948148727417
1665946346612471300,3.58047119140625,-0.18983763456344604,1.4167755842208862,-0.6127946972846985
1665946346622553300,3.59055322265625,-0.18236291408538818,1.1956044435501099,-0.4763147532939911
1665946346632634000,3.600634033203125,-0.1668071299791336,1.0337774753570557,-0.3294760286808014
1665946346642716200,3.610716064453125,-0.2408001571893692,0.6424382328987122,-0.23533736169338226
1665946346652798200,3.620798095703125,-0.19639621675014496,0.5240333080291748,-0.1887030154466629
1665946346662880300,3.63088037109375,-0.08452945947647095,0.6069230437278748,-0.15305551886558533
1665946346672961300,3.640961181640625,-0.0827145203948021,0.5593672394752502,-0.15967561304569244
1665946346683043300,3.651043212890625,-0.07731956988573074,0.33269643783569336,-0.20437091588974
1665946346693125000,3.661125,-0.06551431119441986,0.18977737426757812,-0.24942946434020996
1665946346703207200,3.671207275390625,-0.024079442024230957,0.15995129942893982,-0.262702077627182
1665946346713288200,3.6812880859375,0.032801415771245956,0.08243945240974426,-0.2332158386707306
1665946346723370200,3.691370361328125,0.11621913313865662,-0.027879493311047554,-0.18745560944080353
1665946346733452300,3.701452392578125,0.16860590875148773,-0.12451575696468353,-0.1794661283493042
1665946346743534300,3.711534423828125,0.2012605220079422,-0.20135833323001862,-0.2144632488489151
1665946346753615400,3.721615478515625,0.22286169230937958,-0.23400042951107025,-0.27600252628326416
1665946346763697400,3.731697509765625,0.2271621823310852,-0.20849627256393433,-0.35440534353256226
1665946346773779200,3.741779296875,0.24025987088680267,-0.1650952696800232,-0.40976205468177795
1665946346783861200,3.751861328125,0.2731238901615143,-0.14321866631507874,-0.5343668460845947
1665946346793942300,3.7619423828125,0.381070077419281,0.0022200229577720165,-0.6803640127182007
1665946346804024300,3.7720244140625,0.6127063035964966,-0.01094379648566246,-0.6235599517822266
1665946346814106000,3.782106201171875,1.032680630683899,0.03202284127473831,-0.5144345164299011
1665946346824188200,3.792188232421875,1.2931982278823853,-0.03353865072131157,-0.5320614576339722
1665946346834269200,3.802269287109375,1.3020492792129517,-0.06807452440261841,-0.7506121397018433
1665946346844351200,3.812351318359375,1.0498815774917603,-0.035997651517391205,-0.9733469486236572
1665946346854433300,3.822433349609375,0.6644388437271118,-0.016742195934057236,-0.8632784485816956
1665946346864515300,3.832515380859375,0.22527006268501282,-0.02558545023202896,-0.6333903670310974
1665946346874597400,3.842597412109375,-0.2577032446861267,0.1544034779071808,-0.540249228477478
1665946346884678400,3.852678466796875,-0.4573196470737457,0.30914852023124695,-0.45527520775794983
1665946346894760400,3.862760498046875,-0.39542245864868164,0.47556281089782715,-0.3903454542160034
1665946346904842500,3.872842529296875,-0.17725785076618195,0.6584082245826721,-0.41062235832214355
1665946346914924300,3.88292431640625,-0.11628717184066772,0.7470546960830688,-0.5117337703704834
1665946346925005300,3.89300537109375,-0.06079387664794922,0.7331549525260925,-0.6079971194267273
1665946346935087000,3.903087158203125,0.007559610530734062,0.7995858788490295,-0.6725300550460815
1665946346945169200,3.913169189453125,0.09208887815475464,0.9365360140800476,-0.7027915716171265
1665946346955251200,3.923251220703125,0.18799754977226257,1.1229581832885742,-0.7121405601501465
1665946346965332200,3.933332275390625,0.28270670771598816,1.264085292816162,-0.699332058429718
1665946346975414300,3.943414306640625,0.31366756558418274,1.3047819137573242,-0.6764283776283264
1665946346985496300,3.953496337890625,0.2792208194732666,1.2159072160720825,-0.6322758197784424
1665946346995578400,3.963578369140625,0.29452040791511536,0.9449036717414856,-0.577075719833374
1665946347005659400,3.973659423828125,0.32559800148010254,0.7109723091125488,-0.5284829139709473
1665946347015741400,3.983741455078125,0.3156375288963318,0.6124177575111389,-0.5193416476249695
1665946347025823200,3.9938232421875,0.2915516197681427,0.49570733308792114,-0.5115212798118591
1665946347035905300,4.0039052734375,0.26965510845184326,0.32460322976112366,-0.5301415324211121
1665946347045986000,4.013986083984375,0.26972606778144836,0.21280889213085175,-0.5505025386810303
1665946347056068000,4.024068115234375,0.20913918316364288,0.1773419827222824,-0.6367929577827454
1665946347066150100,4.034150146484375,0.1816587597131729,-0.1043911874294281,-0.641240119934082
1665946347076232200,4.044232177734375,0.15299302339553833,-0.30519142746925354,-0.6140260696411133
1665946347086313200,4.054313232421875,0.1221349909901619,-0.4173988401889801,-0.5961827039718628
1665946347096395300,4.064395263671875,0.0827937126159668,-0.48625192046165466,-0.5861009955406189
1665946347106477300,4.074477294921875,0.02291874960064888,-0.5401725769042969,-0.5844544172286987
1665946347116559400,4.084559326171875,-0.043597958981990814,-0.5178015232086182,-0.5954628586769104
1665946347126641200,4.09464111328125,-0.10113949328660965,-0.4591996371746063,-0.6113616824150085
1665946347136722400,4.104722412109375,-0.1570778638124466,-0.4275679290294647,-0.6204710006713867
1665946347146804200,4.11480419921875,-0.2008192539215088,-0.425398051738739,-0.6376234292984009
1665946347156886300,4.12488623046875,-0.2296959012746811,-0.4206240475177765,-0.6615048050880432
1665946347166968300,4.13496826171875,-0.254748672246933,-0.4261569380760193,-0.6990020275115967
1665946347177049000,4.145049072265625,-0.283512145280838,-0.43155595660209656,-0.7573926448822021
1665946347187131100,4.155131103515625,-0.3262869119644165,-0.43485233187675476,-0.8250478506088257
1665946347197213200,4.165213134765625,-0.35957881808280945,-0.5065893530845642,-0.8720142841339111
1665946347207295200,4.175295166015625,-0.40918630361557007,-0.5779715180397034,-0.9026386141777039
1665946347217376300,4.185376220703125,-0.4542938768863678,-0.6210678815841675,-0.9140276312828064
1665946347227458300,4.195458251953125,-0.49105650186538696,-0.6199585199356079,-0.9261249899864197
1665946347237540400,4.205540283203125,-0.505333423614502,-0.642281174659729,-0.9592201113700867
1665946347247622100,4.2156220703125,-0.49338236451148987,-0.6628158688545227,-1.0149013996124268
1665946347257703400,4.225703369140625,-0.4863588213920593,-0.6572008728981018,-1.0686930418014526
1665946347267785200,4.23578515625,-0.49147143959999084,-0.6288976073265076,-1.1269922256469727
1665946347277867300,4.2458671875,-0.5141195058822632,-0.602039098739624,-1.2009804248809814
1665946347287949300,4.25594921875,-0.5421743392944336,-0.5564084649085999,-1.281190276145935
1665946347298030300,4.2660302734375,-0.5823203921318054,-0.5424095392227173,-1.3370170593261719
1665946347308112400,4.2761123046875,-0.6003648638725281,-0.5160606503486633,-1.3759249448776245
1665946347318194400,4.2861943359375,-0.5921630859375,-0.5386972427368164,-1.3827255964279175
1665946347328276200,4.296276123046875,-0.5489214658737183,-0.5263996124267578,-1.4111846685409546
1665946347338358300,4.306358154296875,-0.48524609208106995,-0.5330148935317993,-1.4495471715927124
1665946347348439300,4.316439208984375,-0.402839332818985,-0.5129215121269226,-1.4880105257034302
1665946347358521300,4.326521240234375,-0.3284905254840851,-0.47355785965919495,-1.4836640357971191
1665946347368603100,4.33660302734375,-0.271005243062973,-0.36527925729751587,-1.4982081651687622
1665946347378686700,4.346686767578125,-0.24116425216197968,-0.2546089291572571,-1.5876853466033936
1665946347388767700,4.356767822265625,-0.23807698488235474,-0.2578426003456116,-1.6802226305007935
1665946347398849500,4.366849609375,-0.24971900880336761,-0.2951012849807739,-1.730705738067627
1665946347408931600,4.376931640625,-0.25073784589767456,-0.174203559756279,-1.8076167106628418
1665946347419013400,4.387013427734375,-0.2616163492202759,-0.14688219130039215,-1.8405061960220337
1665946347429094700,4.3970947265625,-0.266933411359787,-0.19607245922088623,-1.8564668893814087
1665946347439176400,4.407176513671875,-0.24846811592578888,-0.15567097067832947,-1.9363819360733032
1665946347449258500,4.417258544921875,-0.22382718324661255,-0.1407698392868042,-1.999163269996643
1665946347459340500,4.427340576171875,-0.19445037841796875,-0.20746417343616486,-1.9743294715881348
1665946347469421600,4.437421630859375,-0.16989010572433472,-0.21894384920597076,-1.904441475868225
1665946347479503600,4.447503662109375,-0.11523137241601944,0.007419517729431391,-1.901222825050354
1665946347489585700,4.457585693359375,-0.11307989805936813,-0.048765603452920914,-1.8499854803085327
1665946347499667700,4.467667724609375,-0.10722654312849045,-0.04079529643058777,-1.8070534467697144
1665946347509748700,4.477748779296875,-0.11683027446269989,-0.1418486088514328,-1.7278960943222046
1665946347519830800,4.487830810546875,-0.12893834710121155,-0.220680832862854,-1.6197062730789185
1665946347529912800,4.497912841796875,-0.08723451942205429,-0.11306683719158173,-1.6341125965118408
1665946347539994600,4.50799462890625,-0.04247264564037323,-0.03617418557405472,-1.703136920928955
1665946347550075600,4.51807568359375,-0.0634370669722557,-0.2903335392475128,-1.711613416671753
1665946347560157400,4.528157470703125,-0.058385320007801056,-0.35015109181404114,-1.7302701473236084
1665946347570239500,4.538239501953125,-0.11161442846059799,-0.35273367166519165,-1.7026793956756592
1665946347580321500,4.548321533203125,-0.06262797862291336,-0.41069895029067993,-1.6183611154556274
1665946347590402600,4.558402587890625,-0.0733814537525177,-0.22376321256160736,-1.7186572551727295
1665946347600484600,4.568484619140625,-0.14623941481113434,-0.5113092660903931,-1.6995551586151123
1665946347610566700,4.578566650390625,-0.17442496120929718,-0.556577742099762,-1.7065128087997437
1665946347620648700,4.588648681640625,-0.20438551902770996,-0.5364328026771545,-1.7176629304885864
1665946347630729700,4.598729736328125,-0.18548497557640076,-0.5861407518386841,-1.7260794639587402
1665946347640811800,4.608811767578125,-0.1558447927236557,-0.687028706073761,-1.7246938943862915
1665946347650893600,4.6188935546875,-0.16300725936889648,-0.7069584131240845,-1.7690850496292114
1665946347660975600,4.6289755859375,-0.14201408624649048,-0.7376638650894165,-1.7973310947418213
1665946347671056400,4.639056396484375,-0.1420622020959854,-0.7929237484931946,-1.7878293991088867
1665946347681138400,4.649138427734375,-0.14030051231384277,-0.8680121302604675,-1.7630680799484253
1665946347691220500,4.659220458984375,-0.13855405151844025,-0.9492712616920471,-1.7352464199066162
1665946347701301500,4.669301513671875,-0.19128276407718658,-0.9919918179512024,-1.71867835521698
1665946347711383600,4.679383544921875,-0.2345777451992035,-1.0191502571105957,-1.697554588317871
1665946347721465600,4.689465576171875,-0.27027183771133423,-1.0362848043441772,-1.6895766258239746
1665946347731547600,4.699547607421875,-0.2791813015937805,-1.0552719831466675,-1.6871671676635742
1665946347741628700,4.709628662109375,-0.2600480616092682,-1.0445448160171509,-1.6724859476089478
1665946347751710700,4.719710693359375,-0.26521480083465576,-0.9991360902786255,-1.6226186752319336
1665946347761792800,4.729792724609375,-0.2685551941394806,-0.9654982089996338,-1.4965320825576782
1665946347771874600,4.73987451171875,-0.27203628420829773,-0.9422369599342346,-1.3065298795700073
1665946347781955800,4.749955810546875,-0.28115811944007874,-0.9425925016403198,-1.0864156484603882
1665946347792037400,4.760037353515625,-0.302228182554245,-0.9605621099472046,-0.8981788158416748
1665946347802119400,4.770119384765625,-0.2778210937976837,-0.9764875769615173,-0.6845980882644653
1665946347812201500,4.780201416015625,-0.16982050240039825,-0.9322302937507629,-0.5160860419273376
1665946347822282500,4.790282470703125,-0.06725232303142548,-0.8198100328445435,-0.4066828489303589
1665946347832364500,4.800364501953125,0.014796349219977856,-0.663166344165802,-0.3253110647201538
1665946347842446600,4.810446533203125,0.035750098526477814,-0.7561820149421692,-0.0344504714012146
1665946347852528600,4.820528564453125,0.047454833984375,-0.8566916584968567,0.35342156887054443
1665946347862609700,4.830609619140625,0.13729870319366455,-0.8382988572120667,0.4792734980583191
1665946347872691700,4.840691650390625,0.23353219032287598,-0.8715702891349792,0.4748772978782654
1665946347882773800,4.850773681640625,0.29930558800697327,-0.8663113713264465,0.4354550540447235
1665946347892855600,4.86085546875,0.33091503381729126,-0.8581490516662598,0.45967668294906616
1665946347902936600,4.8709365234375,0.31766846776008606,-0.8600385785102844,0.5541712045669556
1665946347913018600,4.8810185546875,0.2977343797683716,-0.8415563702583313,0.6234606504440308
1665946347923100700,4.8911005859375,0.30486953258514404,-0.8477932214736938,0.6729645133018494
1665946347933182700,4.9011826171875,0.35141998529434204,-0.8455579280853271,0.7271382212638855
1665946347943264800,4.9112646484375,0.4156416058540344,-0.8343811631202698,0.7208539247512817
1665946347953345500,4.921345458984375,0.44675666093826294,-0.8034041523933411,0.679616391658783
1665946347963427600,4.931427490234375,0.4510667026042938,-0.7144277095794678,0.6257914900779724
1665946347973509600,4.941509521484375,0.4535157382488251,-0.5670206546783447,0.5423732399940491
1665946347983591700,4.951591796875,0.44257307052612305,-0.4127975106239319,0.40762394666671753
1665946347993672700,4.961672607421875,0.40811479091644287,-0.23844361305236816,0.224308580160141
1665946348003754500,4.97175439453125,0.3686771094799042,-0.1417764574289322,0.022791702300310135
1665946348013836500,4.98183642578125,0.30911755561828613,-0.16688400506973267,-0.18636207282543182
1665946348023918600,4.991918701171875,0.23212850093841553,-0.19809278845787048,-0.3906627297401428
1665946348033999600,5.00199951171875,0.14814038574695587,-0.18997199833393097,-0.5596338510513306
1665946348044081700,5.01208154296875,0.060001470148563385,-0.17233575880527496,-0.6565417647361755
1665946348054163700,5.022163818359375,-0.030425643548369408,-0.12440353631973267,-0.7129293084144592
1665946348064245800,5.032245849609375,-0.10970129072666168,-0.06911684572696686,-0.7503608465194702
1665946348074326500,5.042326416015625,-0.18061961233615875,-0.07697857916355133,-0.7839069366455078
1665946348084408600,5.05240869140625,-0.2431333214044571,-0.12315618991851807,-0.8212308883666992
1665946348094490600,5.06249072265625,-0.29119908809661865,-0.19019193947315216,-0.8391672968864441
1665946348104572400,5.072572509765625,-0.3378094434738159,-0.2595507502555847,-0.8412075042724609
1665946348114653700,5.08265380859375,-0.37307754158973694,-0.28063973784446716,-0.8225466012954712
1665946348124735500,5.092735595703125,-0.392458438873291,-0.2949441075325012,-0.8115299344062805
1665946348134817500,5.102817626953125,-0.4070141911506653,-0.3067554831504822,-0.8341257572174072
1665946348144899600,5.112899658203125,-0.42020297050476074,-0.31369009613990784,-0.8570752739906311
1665946348154980600,5.122980712890625,-0.440014123916626,-0.3254956901073456,-0.8808140754699707
1665946348165062700,5.133062744140625,-0.4615066349506378,-0.3337533473968506,-0.8983922600746155
1665946348175144700,5.143144775390625,-0.4761453866958618,-0.3118787407875061,-0.8859487175941467
1665946348185226800,5.153226806640625,-0.472361296415329,-0.29344168305397034,-0.8787310123443604
1665946348195307500,5.1633076171875,-0.4744229018688202,-0.2801433801651001,-0.8839204907417297
1665946348205389600,5.1733896484375,-0.47368571162223816,-0.25564149022102356,-0.8808072805404663
1665946348215471600,5.1834716796875,-0.4727160334587097,-0.23645968735218048,-0.873905599117279
1665946348225553400,5.193553466796875,-0.45352956652641296,-0.21148082613945007,-0.8581303358078003
1665946348235635500,5.203635498046875,-0.40676385164260864,-0.17328117787837982,-0.8111907243728638
1665946348245716500,5.213716552734375,-0.36222222447395325,-0.19855058193206787,-0.7880536913871765
1665946348255798500,5.223798583984375,-0.3399432599544525,-0.1935618668794632,-0.7691171169281006
1665946348265880600,5.233880615234375,-0.34568023681640625,-0.22263319790363312,-0.7210622429847717
1665946348275962600,5.243962646484375,-0.363871693611145,-0.2046089619398117,-0.6718294024467468
1665946348286043600,5.254043701171875,-0.37886741757392883,-0.1541721522808075,-0.6179006695747375
1665946348296125700,5.264125732421875,-0.3933906853199005,-0.10272423177957535,-0.5769205689430237
1665946348306207700,5.274207763671875,-0.40328511595726013,-0.07117403298616409,-0.5409297943115234
1665946348316289500,5.28428955078125,-0.4147363007068634,-0.04674575850367546,-0.5007060170173645
1665946348326370800,5.294370849609375,-0.4191206693649292,-0.023301949724555016,-0.45656463503837585
1665946348336452600,5.30445263671875,-0.4164302349090576,-0.01596686989068985,-0.4327276051044464
1665946348346534400,5.314534423828125,-0.41111084818840027,0.0045043169520795345,-0.42560285329818726
1665946348356616400,5.324616455078125,-0.4168109893798828,0.02685881033539772,-0.4208012819290161
1665946348366697500,5.334697509765625,-0.42483243346214294,0.026719260960817337,-0.4103313386440277
1665946348376778800,5.34477880859375,-0.4334380030632019,0.06549882143735886,-0.3616056442260742
1665946348386860800,5.35486083984375,-0.43355730175971985,0.09523513913154602,-0.30602574348449707
1665946348396942800,5.36494287109375,-0.42256268858909607,0.1314055323600769,-0.2354515790939331
1665946348407023900,5.37502392578125,-0.41168686747550964,0.18228229880332947,-0.15578442811965942
1665946348417106000,5.38510595703125,-0.4021840989589691,0.18474651873111725,-0.07760189473628998
1665946348427188000,5.39518798828125,-0.3861667811870575,0.17226961255073547,-0.02256341278553009
1665946348437270000,5.40527001953125,-0.37954583764076233,0.18206541240215302,0.023630551993846893
1665946348447351000,5.41535107421875,-0.3622720539569855,0.20187321305274963,0.06806939095258713
1665946348457433000,5.42543310546875,-0.3487611711025238,0.17817723751068115,0.19379177689552307
1665946348467515000,5.435514892578125,-0.3306935131549835,0.29016610980033875,0.26175299286842346
1665946348477597000,5.445596923828125,-0.3259384334087372,0.2762147784233093,0.348722904920578
1665946348487677700,5.455677734375,-0.3074883222579956,0.3158271610736847,0.3766637146472931
1665946348497759700,5.465759765625,-0.27677449584007263,0.29390057921409607,0.4305005967617035
1665946348507841800,5.475841796875,-0.28671714663505554,0.2839464843273163,0.5935065150260925
1665946348517923800,5.485923828125,-0.301236093044281,0.2788158357143402,0.6066573858261108
1665946348528004900,5.4960048828125,-0.3597380220890045,0.16633161902427673,0.6303406357765198
1665946348538087000,5.5060869140625,-0.4454468786716461,0.1320231854915619,0.6954146027565002
1665946348548169000,5.5161689453125,-0.38804882764816284,0.1251325160264969,0.5867139101028442
1665946348558251000,5.5262509765625,-0.4072870910167694,0.07594021409749985,0.5363607406616211
1665946348568332800,5.536332763671875,-0.4606586992740631,0.12518499791622162,0.5005279183387756
1665946348578414000,5.5464140625,-0.49358561635017395,0.16771456599235535,0.5289157032966614
1665946348588496000,5.556495849609375,-0.5193333029747009,0.15489569306373596,0.5105338096618652
1665946348598578000,5.566577880859375,-0.5363431572914124,0.1710796356201172,0.41600462794303894
1665946348608660000,5.576659912109375,-0.5394995212554932,0.13160866498947144,0.38587814569473267
1665946348618740700,5.58674072265625,-0.5301464200019836,0.12401395291090012,0.39060840010643005
1665946348628822800,5.59682275390625,-0.49399906396865845,0.03108534961938858,0.5343296527862549
1665946348638904800,5.60690478515625,-0.47307565808296204,0.11443827301263809,0.4802247881889343
1665946348648987000,5.61698681640625,-0.48568254709243774,0.07096616178750992,0.4605503976345062
1665946348659068000,5.62706787109375,-0.515421986579895,0.05767824500799179,0.460557758808136
1665946348669150000,5.63714990234375,-0.566396176815033,0.032895397394895554,0.502108097076416
1665946348679232000,5.64723193359375,-0.6273843050003052,0.09234949946403503,0.4053105115890503
1665946348689313800,5.657313720703125,-0.6765249967575073,0.08596138656139374,0.3332403004169464
1665946348699394800,5.667394775390625,-0.7061448097229004,0.09480652213096619,0.28284522891044617
1665946348709476900,5.677476806640625,-0.7156581282615662,0.12170418351888657,0.26036471128463745
1665946348719559000,5.687558837890625,-0.7101558446884155,0.14829587936401367,0.2668546140193939
1665946348729641000,5.697640869140625,-0.6849082708358765,0.14799468219280243,0.29406651854515076
1665946348739722000,5.707721923828125,-0.6686936020851135,0.12296885251998901,0.32327839732170105
1665946348749803800,5.7178037109375,-0.6547871232032776,0.09074726700782776,0.3371468186378479
1665946348759885800,5.7278857421875,-0.6538448333740234,0.057144682854413986,0.33915287256240845
1665946348769967900,5.7379677734375,-0.6590675711631775,0.07340195029973984,0.34496229887008667
1665946348780049000,5.748048828125,-0.6559190154075623,0.1021546944975853,0.3399001657962799
1665946348790131000,5.758130859375,-0.6530870199203491,0.12682569026947021,0.33085739612579346
1665946348800212700,5.768212646484375,-0.6460068225860596,0.1261337399482727,0.3310059905052185
1665946348810294800,5.778294677734375,-0.6560354828834534,0.08675943315029144,0.3339266777038574
1665946348820375800,5.788375732421875,-0.6781982183456421,0.05942545458674431,0.3098680078983307
1665946348830457900,5.798457763671875,-0.7142965793609619,0.06008245423436165,0.25518715381622314
1665946348840540000,5.808539794921875,-0.7693071961402893,0.07492464780807495,0.19723747670650482
1665946348850622000,5.8186220703125,-0.8332515954971313,0.06976237893104553,0.1540364772081375
1665946348860703000,5.828702880859375,-0.8863911032676697,0.05946972966194153,0.1351446807384491
1665946348870785000,5.838784912109375,-0.9280445575714111,0.06266286224126816,0.10654845088720322
1665946348880867000,5.8488671875,-0.9728581309318542,0.07564710825681686,0.08135760575532913
1665946348890949000,5.85894921875,-1.0148133039474487,0.1169322282075882,0.052860718220472336
1665946348901030000,5.86902978515625,-1.0544121265411377,0.1768219918012619,0.0195257980376482
1665946348911112000,5.87911181640625,-1.0832033157348633,0.21564821898937225,0.008048105984926224
1665946348921193700,5.88919384765625,-1.0979937314987183,0.20981691777706146,0.016456466168165207
1665946348931275800,5.89927587890625,-1.1093132495880127,0.1972462683916092,0.02159556746482849
1665946348941356800,5.909356689453125,-1.115563988685608,0.16871194541454315,0.02169637940824032
1665946348951438800,5.91943896484375,-1.1186633110046387,0.1533827930688858,0.023020770400762558
1665946348961521000,5.92952099609375,-1.114648461341858,0.14067402482032776,0.05239292234182358
1665946348971603000,5.93960302734375,-1.0944633483886719,0.12558722496032715,0.09873272478580475
1665946348981685000,5.94968505859375,-1.0764974355697632,0.125167578458786,0.14046314358711243
1665946348991766000,5.95976611328125,-1.0659034252166748,0.13549000024795532,0.15725277364253998
1665946349001848000,5.96984814453125,-1.064393401145935,0.15264104306697845,0.14237719774246216
1665946349011930000,5.97993017578125,-1.0727909803390503,0.16155092418193817,0.09864968806505203
1665946349022012000,5.990011962890625,-1.0737361907958984,0.14894558489322662,0.03859541937708855
1665946349032093000,6.000093017578125,-1.0801481008529663,0.12456248700618744,-0.030818812549114227
1665946349042174700,6.0101748046875,-1.093990683555603,0.11428502202033997,-0.09494389593601227
1665946349052256800,6.0202568359375,-1.1180754899978638,0.13122539222240448,-0.15075843036174774
1665946349062338800,6.0303388671875,-1.1400090456008911,0.14287713170051575,-0.20931775867938995
1665946349072419800,6.040419921875,-1.1572500467300415,0.13810928165912628,-0.25978201627731323
1665946349082502000,6.050501953125,-1.1655066013336182,0.10203073173761368,-0.3083629310131073
1665946349092584000,6.060583984375,-1.159693717956543,0.08281362801790237,-0.3294868469238281
1665946349102666000,6.070666015625,-1.154844045639038,0.05206938087940216,-0.3304450809955597
1665946349112747000,6.0807470703125,-1.1513487100601196,0.001365190022625029,-0.3389109969139099
1665946349122829000,6.0908291015625,-1.1480598449707031,-0.034672338515520096,-0.3600051701068878
1665946349132910800,6.100910888671875,-1.1620595455169678,-0.011818420141935349,-0.3706199824810028
1665946349142993000,6.110992919921875,-1.1837990283966064,0.029269810765981674,-0.3769734799861908
1665946349153073700,6.12107373046875,-1.226567268371582,0.054842278361320496,-0.3794502019882202
1665946349163155700,6.13115576171875,-1.2629752159118652,0.08202246576547623,-0.35659557580947876
1665946349173237800,6.14123779296875,-1.2882134914398193,0.06979456543922424,-0.32494044303894043
1665946349183319800,6.15131982421875,-1.298945426940918,0.04325886443257332,-0.2906152904033661
1665946349193400800,6.16140087890625,-1.3061903715133667,0.02877792716026306,-0.2539677917957306
1665946349203483000,6.17148291015625,-1.316089391708374,0.01987243816256523,-0.2178523689508438
1665946349213565000,6.18156494140625,-1.323912262916565,0.017370665445923805,-0.1663479059934616
1665946349223647000,6.19164697265625,-1.3264411687850952,-0.000814976985566318,-0.12211710959672928
1665946349233728000,6.20172802734375,-1.327805519104004,-0.02083475887775421,-0.09603144973516464
1665946349243810000,6.21181005859375,-1.3319556713104248,-0.02727692201733589,-0.08402461558580399
1665946349253891800,6.221891845703125,-1.3452073335647583,-0.017379283905029297,-0.08809366077184677
1665946349263974000,6.231973876953125,-1.3595994710922241,-0.013021763414144516,-0.10794299840927124
1665946349274055000,6.242054931640625,-1.3730037212371826,-0.025275500491261482,-0.14462165534496307
1665946349284137000,6.252136962890625,-1.3885554075241089,-0.027975307777523994,-0.1803365796804428
1665946349294218800,6.26221875,-1.4029502868652344,-0.028599552810192108,-0.21003375947475433
1665946349304300800,6.27230078125,-1.4073681831359863,-0.03942079842090607,-0.22639256715774536
1665946349314381800,6.2823818359375,-1.410072922706604,-0.06712432950735092,-0.22751852869987488
1665946349324463900,6.2924638671875,-1.416653037071228,-0.07325523346662521,-0.23690955340862274
1665946349334546000,6.3025458984375,-1.4269059896469116,-0.06792011857032776,-0.2516115605831146
1665946349344628000,6.3126279296875,-1.4372704029083252,-0.06702408939599991,-0.2646105885505676
1665946349354709800,6.322709716796875,-1.4472966194152832,-0.06249032914638519,-0.2665847837924957
1665946349364791000,6.332791015625,-1.4636611938476562,-0.06891346722841263,-0.25418341159820557
1665946349374872800,6.342872802734375,-1.4819834232330322,-0.07693783938884735,-0.23511865735054016
1665946349384955100,6.352955078125,-1.4934659004211426,-0.08952921628952026,-0.21549107134342194
1665946349395037200,6.363037109375,-1.4965146780014038,-0.09901939332485199,-0.19005176424980164
1665946349405118200,6.3731181640625,-1.4908459186553955,-0.10176266729831696,-0.1640997678041458
1665946349415200300,6.3832001953125,-1.476208209991455,-0.10297227650880814,-0.13802474737167358
1665946349425282300,6.3932822265625,-1.454282522201538,-0.10103578865528107,-0.12414389103651047
1665946349435364400,6.4033642578125,-1.4292997121810913,-0.10055482387542725,-0.11083340644836426
1665946349445445400,6.4134453125,-1.4062389135360718,-0.09672796726226807,-0.10713554173707962
1665946349455527400,6.42352734375,-1.3812230825424194,-0.09025461971759796,-0.09991837292909622
1665946349465609200,6.433609130859375,-1.3678438663482666,-0.09463884681463242,-0.0827431008219719
1665946398046762500,55.014762451171876,0.38222211599349976,-1.3025113344192505,-1.3961191177368164
1665946398056843500,55.02484350585937,0.3841606378555298,-0.7263753414154053,-1.3652698993682861
1665946398066924500,55.03492456054688,0.49401432275772095,-0.3132186233997345,-1.2562991380691528
1665946398077005300,55.04500537109375,0.6395862102508545,-0.20279596745967865,-1.1112124919891357
1665946398087086300,55.05508642578125,0.7468819618225098,-0.18637384474277496,-0.9301741719245911
1665946398097168400,55.06516845703125,0.8105839490890503,-0.13176625967025757,-0.7727928161621094
1665946398107249400,55.07524951171875,0.8377346396446228,0.027832897379994392,-0.6065105199813843
1665946398117330400,55.08533032226563,0.8545024394989014,0.3105540871620178,-0.45121070742607117
1665946398127411500,55.09541137695312,0.8229458332061768,0.7435925006866455,-0.3909780979156494
1665946398137492500,55.10549243164063,0.7749106884002686,0.8524691462516785,-0.28561121225357056
1665946398147573500,55.115573486328124,0.7237632870674133,0.9008350968360901,-0.20264913141727448
1665946398157654500,55.12565454101563,0.6588958501815796,0.9139794111251831,-0.16611561179161072
1665946398167735600,55.135735595703125,0.5577327609062195,0.8286324739456177,-0.14430925250053406
1665946398177817600,55.145817626953125,0.47100773453712463,0.7654604315757751,-0.15482234954833984
1665946398187898400,55.1558984375,0.4461125433444977,0.754227876663208,-0.20762433111667633
1665946398197979400,55.1659794921875,0.47419503331184387,0.7179332971572876,-0.26565858721733093
1665946398208060400,55.17606030273438,0.513426661491394,0.622286319732666,-0.3218879997730255
1665946398218141400,55.186141357421874,0.5733781456947327,0.533008873462677,-0.3696286380290985
1665946398228222500,55.19622241210938,0.6205242872238159,0.4160320460796356,-0.4037494361400604
1665946398238303500,55.206303466796875,0.6070201992988586,0.2897145748138428,-0.43995726108551025
1665946398248385500,55.216385498046876,0.5415405035018921,0.19421733915805817,-0.4923810660839081
1665946398258466600,55.22646655273437,0.4984380602836609,0.13133931159973145,-0.5473949909210205
1665946398268547600,55.236547607421876,0.5293066501617432,0.10151784121990204,-0.5801169872283936
1665946398278628600,55.24662866210937,0.3802260458469391,0.6839538216590881,-0.40825095772743225
1665946398288709400,55.25670947265625,0.03500037267804146,1.2383601665496826,-0.018210824579000473
1665946398298790400,55.26679028320312,-0.14666315913200378,1.3128588199615479,0.3494313657283783
1665946398308871400,55.276871337890626,-0.02733539789915085,1.1698592901229858,0.6542563438415527
1665946398318952400,55.28695239257812,0.20710773766040802,0.9146735668182373,0.8703897595405579
1665946398329034500,55.29703442382812,0.34615451097488403,0.6965866088867188,0.9831039905548096
1665946398339115300,55.307115234375,0.3580564558506012,0.5202118754386902,0.9762468934059143
1665946398349196500,55.31719653320312,0.2885890305042267,0.3570355176925659,0.8949840068817139
1665946398359277600,55.32727758789063,0.2322636842727661,0.1870158314704895,0.7578448057174683
1665946398369358600,55.337358642578124,0.18842527270317078,0.01901986449956894,0.6581969261169434
1665946398379439600,55.34743969726563,0.1576457917690277,-0.14109843969345093,0.6622238755226135
1665946398389520400,55.35752026367187,0.2223825603723526,0.06233355775475502,0.6808363199234009
1665946398399602400,55.3676025390625,0.21600668132305145,0.08160286396741867,0.6962131261825562
1665946398409683500,55.37768334960938,0.13053758442401886,0.057522956281900406,0.5747226476669312
1665946398419764500,55.387764404296874,-0.03383937105536461,0.13330188393592834,0.4736567735671997
1665946398429845500,55.39784545898438,-0.15468251705169678,0.19228078424930573,0.4655938148498535
1665946398439926300,55.40792626953125,-0.1346648633480072,0.12176933139562607,0.5538565516471863
1665946398450007600,55.41800756835938,-0.04712614044547081,0.06860584020614624,0.6605944037437439
1665946398460088600,55.428088623046875,-0.006399218458682299,0.03626973181962967,0.7012664675712585
1665946398470169600,55.43816967773437,0.028869491070508957,0.061628784984350204,0.6436904668807983
1665946398480251600,55.44825170898437,-0.013992488384246826,-0.041745539754629135,0.5227688550949097
1665946398490332400,55.45833251953125,-0.1266157627105713,-0.17137804627418518,0.4591296315193176
1665946398500413400,55.46841333007813,-0.13331015408039093,-0.24650901556015015,0.42554184794425964
1665946398510494500,55.478494384765625,-0.12861166894435883,-0.37881121039390564,0.4006253778934479
1665946398520575500,55.48857543945312,-0.1437152624130249,-0.3205931782722473,0.4090755879878998
1665946398530656500,55.498656494140626,-0.04886142164468765,-0.30284756422042847,0.43906691670417786
1665946398540737300,55.5087373046875,0.12394125014543533,-0.5420737266540527,0.49189069867134094
1665946398550819300,55.5188193359375,0.31796208024024963,-0.754371702671051,0.5353446006774902
1665946398560900400,55.528900390625,0.41967567801475525,-0.8022827506065369,0.5128840208053589
1665946398570981400,55.5389814453125,0.389910489320755,-0.626152753829956,0.45521605014801025
1665946398581062700,55.54906274414063,0.28451135754585266,-0.39320307970046997,0.3824619650840759
1665946398591143400,55.55914331054687,0.17436209321022034,-0.18970061838626862,0.2858155071735382
1665946398601224400,55.569224365234376,0.10706081241369247,-0.07621452957391739,0.10742846876382828
1665946398611305500,55.57930541992187,0.09321508556604385,0.2175055891275406,-0.28480127453804016
1665946398621387500,55.58938745117187,0.0648801177740097,0.6652221083641052,-0.6325715184211731
1665946398631468500,55.59946850585938,0.007043554447591305,0.763822078704834,-0.6646952629089355
1665946398641549600,55.609549560546874,-0.06746823340654373,0.628355860710144,-0.5783539414405823
1665946398651630300,55.61963037109375,-0.05972197279334068,0.41454795002937317,-0.4105475842952728
1665946398661711400,55.62971142578125,-0.020554862916469574,0.24137645959854126,-0.22559717297554016
1665946398671792400,55.63979248046875,-0.025761505588889122,0.06964664906263351,-0.01939409226179123
1665946398681873700,55.649873779296875,-0.05498224496841431,-0.09231268614530563,0.14047518372535706
1665946398691955500,55.65995556640625,-0.06361651420593262,-0.1829570233821869,0.2108672559261322
1665946398702036500,55.67003637695313,-0.06485249102115631,-0.13156679272651672,0.19301262497901917
1665946398712117500,55.680117431640625,-0.07867570966482162,-0.02142191119492054,0.16275835037231445
1665946398722198500,55.69019848632813,-0.10437920689582825,0.03020453080534935,0.16978377103805542
1665946398732279600,55.700279541015625,-0.1438104659318924,0.019027693197131157,0.2138349860906601
1665946398742360600,55.71036059570312,-0.18438425660133362,-0.021475259214639664,0.26759037375450134
1665946398752441300,55.72044140625,-0.21359552443027496,-0.07064694911241531,0.31047752499580383
1665946398762523400,55.7305234375,-0.21677133440971375,-0.06719149649143219,0.30972519516944885
1665946398772604400,55.7406044921875,-0.2157895714044571,-0.01573612168431282,0.2994145154953003
1665946398782685000,55.75068481445312,-0.22118912637233734,-0.04322793334722519,0.29495373368263245
1665946398792766200,55.76076611328125,-0.17028921842575073,-0.08631912618875504,0.33656176924705505
1665946398802847200,55.77084716796875,-0.10077060759067535,-0.1515340805053711,0.3969089984893799
1665946398812928300,55.78092822265625,-0.0435703843832016,-0.1955447494983673,0.45464372634887695
1665946398823009300,55.79100927734375,-0.04903785139322281,-0.2766963243484497,0.47005516290664673
1665946398833091300,55.80109130859375,-0.07653463631868362,-0.23362888395786285,0.46463343501091003
1665946398843172000,55.81117211914062,-0.10759668052196503,-0.1855175495147705,0.4377850592136383
1665946398853253000,55.821253173828126,-0.1111246719956398,-0.1082194522023201,0.39820343255996704
1665946398863334100,55.83133422851562,-0.11325254291296005,-0.07029124349355698,0.3449772298336029
1665946398873415200,55.841415283203126,-0.10615044087171555,-0.026204101741313934,0.27951759099960327
1665946398883496000,55.85149584960938,-0.09197496622800827,-0.033009544014930725,0.2154480516910553
1665946398893577200,55.8615771484375,-0.09233662486076355,-0.05544561147689819,0.1532464623451233
1665946398903659000,55.871658935546876,-0.09316380321979523,-0.027768708765506744,0.1270577311515808
1665946398913740000,55.88173999023437,-0.07953906804323196,-0.03218130022287369,0.11502929776906967
1665946398923821300,55.8918212890625,-0.09878147393465042,-0.054787278175354004,0.11680402606725693
1665946398933902300,55.90190234375,-0.10563372075557709,-0.05974491685628891,0.11022842675447464
1665946398943983000,55.91198315429688,-0.0739801898598671,-0.08376716077327728,0.08362717181444168
1665946398954064100,55.922064208984374,-0.04327968508005142,-0.07759058475494385,0.02818877436220646
1665946398964146200,55.932146240234374,-0.04859509319067001,-0.038870617747306824,-0.04389633983373642
1665946398974227200,55.94222729492188,-0.07384905219078064,0.021118415519595146,-0.09794998168945312
1665946398984308200,55.95230810546875,-0.09487268328666687,0.07593022286891937,-0.11722072958946228
1665946398994389000,55.96238891601563,-0.10192296653985977,0.11744994670152664,-0.11637746542692184
1665946399004470000,55.97246997070312,-0.09805605560541153,0.11853252351284027,-0.09858488291501999
1665946399014551000,55.98255102539063,-0.0866079106926918,0.10241789370775223,-0.08616793900728226
1665946399024632300,55.99263232421875,-0.05680101364850998,0.11813800036907196,-0.06929974257946014
1665946399034714000,56.002714111328125,0.0039255861192941666,0.1415959894657135,-0.04131792485713959
1665946399044795100,56.01279516601563,0.03208798170089722,0.08972427248954773,-0.0014565316960215569
1665946399054876200,56.022876220703125,0.034775782376527786,0.061602551490068436,0.030168987810611725
1665946399064957200,56.03295727539062,0.011682981625199318,0.04331888630986214,0.03176581859588623
1665946399075038200,56.0430380859375,-0.024235090240836143,0.04283815994858742,0.006380382925271988
1665946399085119200,56.053119140625,-0.06244586035609245,0.04327918216586113,-0.031902290880680084
1665946399095201300,56.063201171875,-0.06547227501869202,0.03338993340730667,-0.056616395711898804
1665946399105282000,56.073281982421875,-0.03766621649265289,0.01785411685705185,-0.06905708461999893
1665946399115363000,56.08336303710937,-0.02594929002225399,0.030156049877405167,-0.054983384907245636
1665946399125444000,56.093444091796876,-0.020268768072128296,0.037599317729473114,-0.009591934271156788
1665946399135525000,56.10352514648437,-0.007661906071007252,0.029601020738482475,0.03974287584424019
1665946399145606100,56.113606201171876,0.008972197771072388,0.018027188256382942,0.062046848237514496
1665946399155688000,56.12368798828125,0.02383962832391262,0.024761488661170006,0.06467989087104797
1665946399165769200,56.133769287109374,0.024063866585493088,0.027274712920188904,0.07308322936296463
1665946399175850200,56.14385034179688,0.020793352276086807,0.022426072508096695,0.07853055745363235
1665946399185931300,56.15393115234375,0.021037830039858818,0.008266844786703587,0.08036893606185913
1665946399196012300,56.16401220703125,0.02194463275372982,0.007038463372737169,0.08812196552753448
1665946399206093000,56.17409301757812,0.03186863660812378,0.02249971218407154,0.0924014002084732
1665946399216175000,56.18417504882812,0.05031232908368111,0.029135989025235176,0.07993630319833755
1665946399226256100,56.19425610351563,0.06414319574832916,0.015519513748586178,0.06171708554029465
1665946399236337200,56.204337158203124,0.06233767047524452,0.005916569847613573,0.04540213942527771
1665946399246418200,56.21441821289063,0.0510605163872242,-0.0059723141603171825,0.04576166719198227
1665946399256499000,56.2244990234375,0.035870637744665146,-0.018237633630633354,0.03898502141237259
1665946399266580200,56.23458032226562,0.02989024482667446,-0.022227846086025238,0.01130732148885727
1665946399276662000,56.244662109375,0.02805662900209427,-0.010405595414340496,0.00030429940670728683
1665946399286743000,56.254742919921874,0.01543084904551506,0.011087979190051556,0.01311410404741764
1665946399296824300,56.26482421875,-0.004787071142345667,0.02679184079170227,0.0420626625418663
1665946399306905000,56.274905029296875,-0.024154111742973328,0.035069480538368225,0.06589502841234207
1665946399316986000,56.28498608398438,-0.03322162479162216,0.041327133774757385,0.06944307684898376
1665946399327067100,56.295067138671875,-0.032213352620601654,0.050898533314466476,0.05738427862524986
1665946399337149200,56.305149169921876,-0.03978781774640083,0.05132119357585907,0.04228536784648895
1665946399347230200,56.31523022460937,-0.03959713503718376,0.032516878098249435,0.03329800069332123
1665946399357311200,56.325311279296876,-0.036116234958171844,0.015761293470859528,0.02731860615313053
1665946399367392000,56.33539208984375,-0.026238834485411644,0.021361656486988068,0.010949220508337021
1665946399377473000,56.34547314453125,-0.011610187590122223,0.032056357711553574,-0.0062783826142549515
1665946399387554000,56.35555395507812,-0.008085494861006737,0.02608049288392067,-0.003662891685962677
1665946399397636000,56.36563598632812,-0.011394085362553596,0.007795399986207485,0.012826893478631973
1665946399407717000,56.375717041015626,-0.0032349596731364727,0.007276350166648626,-0.00976150669157505
1665946399417798100,56.38579809570312,0.010096274316310883,0.026839906349778175,-0.05510812997817993
1665946399427879200,56.39587915039063,0.0037438366562128067,0.04148196801543236,-0.07101945579051971
1665946399437960200,56.405960205078124,-0.001364059280604124,0.037926722317934036,-0.05012180656194687
1665946399448042200,56.416042236328124,-0.012032417580485344,0.03544092923402786,-0.015242116525769234
1665946399458123300,56.42612329101563,-0.009131131693720818,0.0312691368162632,0.004403058439493179
1665946399468204300,56.436204345703125,-0.010008376091718674,0.02513081580400467,0.023204177618026733
1665946399478285000,56.44628515625,-0.013755560852587223,0.015909845009446144,0.04888390749692917
1665946399488366000,56.456365966796874,-0.0217069610953331,-0.013261355459690094,0.07102037221193314
1665946399498448100,56.4664482421875,-0.017836371436715126,-0.03905840963125229,0.06239989027380943
1665946399508529200,56.47652905273438,-0.010787783190608025,-0.030233493074774742,0.03938458487391472
1665946399518610200,56.486610107421875,-0.018006447702646255,-0.02391858771443367,0.020376157015562057
1665946399528691000,56.49669091796875,-0.02177615277469158,-0.011720776557922363,0.015487924218177795
1665946399538772200,56.506772216796875,-0.027738239616155624,0.011247158981859684,0.020084036514163017
1665946399548853200,56.51685327148437,-0.03240836039185524,0.019657421857118607,0.0313715785741806
1665946399558935000,56.52693505859375,-0.037131406366825104,0.022233590483665466,0.05207998305559158
1665946399569016300,56.53701635742188,-0.044476404786109924,0.01593414880335331,0.07182864844799042
1665946399579097000,56.54709716796875,-0.04574934020638466,0.01820310205221176,0.06902360171079636
1665946399589178000,56.55717822265625,-0.04460631310939789,0.023207448422908783,0.06157180666923523
1665946399599259100,56.56725903320312,-0.04446796700358391,0.024885844439268112,0.06939170509576797
1665946399609341200,56.57734106445312,-0.04948829486966133,0.021947313100099564,0.08280418813228607
1665946399619422200,56.587422119140626,-0.04993874579668045,0.008251830004155636,0.09342823177576065
1665946399629503200,56.59750317382812,-0.042020633816719055,0.003904485609382391,0.09591615200042725
1665946399639584000,56.607583984375,-0.03954554349184036,-0.0018747805152088404,0.0719527155160904
1665946399649665000,56.6176650390625,-0.03352440148591995,-0.020515576004981995,0.029000718146562576
1665946399659747000,56.6277470703125,-0.029671303927898407,-0.019489947706460953,0.007106701377779245
1665946399669828000,56.637828125,-0.02818339690566063,-0.007477492559701204,0.01812366582453251
1665946399679909000,56.6479091796875,-0.028664380311965942,-0.009861310943961143,0.04287809878587723
1665946399689990100,56.657990234375,-0.02722041681408882,-0.013590268790721893,0.07110041379928589
1665946399700071200,56.6680712890625,-0.02861885540187359,-0.0121312839910388,0.07942762970924377
1665946399710153200,56.6781533203125,-0.024226238951086998,-0.012519572861492634,0.06878989934921265
1665946399720234200,56.68823413085938,-0.027854464948177338,-0.024098895490169525,0.0572645477950573
1665946399730315300,56.698315185546875,-0.03370915725827217,-0.031068122014403343,0.05877083167433739
1665946399740396300,56.70839624023437,-0.03964489698410034,-0.00960370060056448,0.05176146700978279
1665946399750477000,56.71847705078125,-0.045793332159519196,0.0026401823852211237,0.0487331859767437
1665946399760559000,56.72855908203125,-0.04743272438645363,0.01891842857003212,0.04863470420241356
1665946399770640100,56.73864013671875,-0.04746095463633537,0.015411579050123692,0.05404970794916153
1665946399780721200,56.74872119140625,-0.04331916943192482,0.008602452464401722,0.0545496828854084
1665946399790803000,56.758802978515625,-0.04796319082379341,0.00227531511336565,0.04709043353796005
1665946399800883700,56.7688837890625,-0.053604766726493835,0.0033044619485735893,0.037390679121017456
1665946399810965800,56.7789658203125,-0.05550146847963333,0.006303180940449238,0.030158065259456635
1665946399821046800,56.789046875,-0.05670277401804924,0.00816906988620758,0.03600752726197243
1665946399831127800,56.7991279296875,-0.055817537009716034,0.001777483383193612,0.04893290996551514
1665946399841208800,56.809208740234375,-0.05660123750567436,-0.006374489516019821,0.05684593319892883
1665946399851289900,56.81928979492187,-0.0649835392832756,-0.00707250414416194,0.051377132534980774
1665946399861371600,56.82937158203125,-0.0690433606505394,0.0015429416671395302,0.03941437229514122
1665946399871453000,56.839452880859376,-0.07161011546850204,0.0027168630622327328,0.02418029122054577
1665946399881534000,56.84953393554687,-0.07125096768140793,0.014461756683886051,0.010009770281612873
1665946399891615000,56.85961499023438,-0.07639645785093307,0.03271186724305153,0.00047698523849248886
1665946399901696000,56.869696044921874,-0.07103662192821503,0.03810378536581993,0.003011377528309822
1665946399911778000,56.879778076171874,-0.05457668378949165,0.007520042825490236,0.034849733114242554
1665946399921858800,56.88985888671875,-0.04199404641985893,-0.02779853343963623,0.07292867451906204
1665946399931939800,56.89993994140625,-0.032865531742572784,-0.05102662369608879,0.0939071998000145
1665946399942020900,56.91002075195313,-0.037174925208091736,-0.05556071549654007,0.08585274964570999
1665946399952103000,56.92010302734375,-0.04406452551484108,-0.04995902255177498,0.061330366879701614
1665946399962184000,56.930183837890624,-0.0480266734957695,-0.036622304469347,0.02269626036286354
1665946399972264700,56.9402646484375,-0.051230721175670624,-0.024661244824528694,-0.005938580259680748
1665946399982345700,56.950345703125,-0.0505647175014019,-0.025373581796884537,-0.008208445273339748
1665946399992426800,56.9604267578125,-0.05683859437704086,-0.024952003732323647,0.00507726613432169
1665946400002508800,56.9705087890625,-0.06275025755167007,-0.022167518734931946,0.02404283732175827
1665946400012589800,56.98058984375,-0.06242109090089798,-0.016914168372750282,0.03383581340312958
1665946400022670800,56.9906708984375,-0.06716206669807434,-0.012028886936604977,0.04129967465996742
1665946400032751900,57.000751953125,-0.06969686597585678,-0.009156934916973114,0.0486057884991169
1665946400042833000,57.0108330078125,-0.07357675582170486,0.0078084408305585384,0.048740603029727936
1665946400052915000,57.0209150390625,-0.07213599234819412,0.03577562794089317,0.040781743824481964
1665946400062996000,57.030995849609376,-0.07632004469633102,0.03658527508378029,0.038495514541864395
1665946400073077000,57.04107690429687,-0.06830766052007675,0.02761175110936165,0.052450746297836304
1665946400083157800,57.05115771484375,-0.06466149538755417,0.0062501877546310425,0.0746494010090828
1665946400093239800,57.06123974609375,-0.06423671543598175,0.004373724572360516,0.08360880613327026
1665946400103320800,57.07132080078125,-0.056969013065099716,0.016484208405017853,0.06688063591718674
1665946400113401900,57.08140185546875,-0.05081498250365257,0.020763641223311424,0.04137473925948143
1665946400123483000,57.09148291015625,-0.05005856230854988,0.033523235470056534,0.013772333040833473
1665946400133565000,57.10156494140625,-0.04963165521621704,0.025181682780385017,-0.0014361804351210594
1665946400143645700,57.11164575195313,-0.046148836612701416,0.01670607179403305,-0.002094792202115059
1665946400153726700,57.12172680664062,-0.03817693144083023,0.011877226643264294,0.002873067744076252
1665946400163807700,57.13180786132813,-0.039601974189281464,0.014096868224442005,0.010270224884152412
1665946400173889000,57.141888916015624,-0.033835966140031815,0.016666552051901817,0.01301940530538559
1665946400183970800,57.151970703125,-0.029959797859191895,0.014103015884757042,0.018064439296722412
1665946400194051800,57.1620517578125,-0.02890358865261078,0.021154534071683884,0.019147813320159912
1665946400204132900,57.1721328125,-0.026003573089838028,0.018914036452770233,0.014543624594807625
1665946400214214000,57.1822138671875,-0.022961709648370743,0.009730392135679722,-0.003187168389558792
1665946400224296000,57.1922958984375,-0.020578181371092796,0.004399808589369059,-0.0166033748537302
1665946400234377000,57.202376953125,-0.022024277597665787,-0.004156661685556173,-0.027980666607618332
1665946400244458000,57.2124580078125,-0.02319047786295414,-0.0016669973265379667,-0.02964882366359234
1665946400254538800,57.222538818359375,-0.024368394166231155,0.0038196472451090813,-0.027751320973038673
1665946400264619800,57.23261987304687,-0.026170603930950165,-0.005749970208853483,-0.01443401724100113
1665946400274701800,57.24270190429687,-0.03547169268131256,-0.008922060951590538,-0.005042646080255508
1665946400284782800,57.252782958984376,-0.038963548839092255,-0.0069434754550457,0.0072746663354337215
1665946400294864000,57.26286376953125,-0.03925622999668121,-0.0018507125787436962,0.012750658206641674
1665946400304944600,57.272944580078125,-0.03875315189361572,0.0007004528888501227,0.010682666674256325
1665946400315026700,57.283026611328125,-0.03952600061893463,0.011159218847751617,0.006459958851337433
1665946400325107700,57.29310766601562,-0.04375743493437767,0.027598481625318527,0.009923411533236504
1665946400335189000,57.30318896484375,-0.05228114873170853,0.04241737723350525,0.013761293143033981
1665946400345270000,57.31327001953125,-0.05087265372276306,0.05580488219857216,0.0034430893138051033
1665946400355351800,57.32335180664062,-0.0497882142663002,0.050544872879981995,-0.01415294874459505
1665946400365432800,57.33343286132813,-0.0507575161755085,0.03535018488764763,-0.013984757475554943
1665946400375513900,57.343513916015624,-0.0468413382768631,0.01665452867746353,0.0010344050824642181
1665946400385595000,57.35359497070313,-0.041775841265916824,0.0003880640724673867,0.014333594590425491
1665946400395677000,57.36367700195313,-0.04068367928266525,-0.0033283771481364965,0.030252907425165176
1665946400405758000,57.373758056640625,-0.03619227185845375,0.0011584729654714465,0.034389056265354156
1665946400415839000,57.3838388671875,-0.03734542056918144,0.010133858770132065,0.03372086584568024
1665946400425919700,57.393919677734374,-0.03761163353919983,0.023234620690345764,0.031798169016838074
1665946400436001800,57.404001708984374,-0.035351939499378204,0.041840266436338425,0.029820771887898445
1665946400446082800,57.41408276367188,-0.03456912934780121,0.0920795351266861,0.033638834953308105
1665946400456163800,57.424163818359375,-0.0429527573287487,0.1326402723789215,0.06654272973537445
1665946400466244900,57.43424487304687,-0.03601442649960518,0.16608558595180511,0.12327843904495239
1665946400476327000,57.44432690429687,-0.028052639216184616,0.16903343796730042,0.19805040955543518
1665946400486407700,57.45440771484375,-0.016268815845251083,0.16133083403110504,0.2901126742362976
1665946400496488700,57.46448876953125,-0.017776697874069214,0.11093583703041077,0.3491184711456299
1665946400506570000,57.47457006835938,0.0014097136445343494,0.018720587715506554,0.28705456852912903
1665946400516651000,57.48465112304687,0.018265126273036003,-0.000934339826926589,0.1460854411125183
1665946400526732800,57.49473291015625,0.04382080212235451,-0.010490315034985542,-0.0055252909660339355
1665946400536814000,57.50481396484375,0.053863316774368286,-0.03170904889702797,-0.10942719131708145
1665946400546894800,57.51489477539062,0.04965865612030029,-0.030737511813640594,-0.16035808622837067
1665946400556975900,57.52497583007813,0.020533259958028793,-0.0327703021466732,-0.17029859125614166
1665946400567058000,57.53505786132813,-0.0045739272609353065,-0.05547395348548889,-0.13991840183734894
1665946400577139000,57.545138916015624,-0.018320366740226746,-0.08517299592494965,-0.09047307819128036
1665946400587220000,57.55521997070313,-0.02362353354692459,-0.11833776533603668,-0.04877272993326187
