time,seconds_elapsed,z,y,x
1665946108855008800,0.0270087890625,-0.0012438625812530516,0.0712765992283821,-0.09456541261821985
1665946108865089800,0.03708984375,0.005204290644824505,0.08106324922740459,-0.10700491521358489
1665946108875171000,0.047171142578125,-0.006286532923579216,0.07332768653929234,-0.11789923419356345
1665946108885252000,0.057252197265625,0.022870295716822146,0.07384674197733401,-0.1179521334245801
1665946108895334000,0.067333984375,0.00797989283800125,0.06925882966518401,-0.09767711489796638
1665946108905415000,0.077414794921875,-0.06295213073641061,0.047186114066839216,-0.10147095422297715
1665946108915496000,0.087495849609375,-0.09650544077008961,-0.002361468434333801,-0.07628390599638223
1665946108925577000,0.097576904296875,-0.04346329415142536,-0.04435352098941803,-0.03996609968543052
1665946108935659000,0.107658935546875,-0.05394084902405739,-0.027649638947844505,-0.048119011002779
1665946108945740000,0.117739990234375,-0.07260740944072604,0.01637888787090778,-0.07925035458654164
1665946108955821000,0.127821044921875,-0.023326222790777684,0.03218202168047428,-0.12860270677655936
1665946108965901800,0.13790185546875,-0.0034071780949831007,0.06495441046953201,-0.12043021397590636
1665946108975982800,0.14798291015625,-0.06046878948807716,0.09420563939511775,-0.06308657077103853
1665946108986065000,0.15806494140625,-0.09799845580682158,0.07844225307404995,-0.048130409179627895
1665946108996146000,0.16814599609375,-0.07884177378565073,0.05524550188183784,-0.093826576949656
1665946109006227000,0.17822705078125,-0.0546679942548275,0.019375147077441215,-0.07951835787296295
1665946109016307700,0.1883076171875,-0.0861056273087859,-0.031331542330980296,-0.07791530659049749
1665946109026389800,0.1983896484375,-0.08002484609037637,-0.006941781961917877,-0.09833557880669831
1665946109036470800,0.208470703125,-0.06958294705301522,0.03860533272624016,-0.0780497466251254
1665946109046552000,0.218552001953125,-0.1111871693342924,0.05599368990063667,-0.011762333986163139
1665946109056633000,0.228633056640625,-0.09429244089573621,0.048553310766816134,-0.04816723405867815
1665946109066715000,0.23871484375,-0.11343977056667208,0.0552343959659338,-0.05429126989692449
1665946109076796000,0.2487958984375,-0.16747896539866924,0.04095861785411835,-0.07893792763650417
1665946109086877000,0.258876953125,-0.15821020179390907,0.014698387438058852,-0.07258680504411459
1665946109096958000,0.2689580078125,-0.09109539842009544,0.03110533235967159,-0.09408464336395263
1665946109107040000,0.2790400390625,-0.041188627217710015,0.088783614346385,-0.12574965543299912
1665946109117121000,0.28912109375,-0.00807400086224079,0.17430676559209823,-0.17813889110088346
1665946109127202000,0.2992021484375,-0.06281652165800333,0.2559527831435203,-0.2807106461726129
1665946109137282800,0.30928271484375,0.08781272348761558,0.1995616183578968,0.03548822361901402
1665946109147364900,0.31936474609375,0.054153907252848146,0.23263795852959154,0.07709390720501541
1665946109157446000,0.32944580078125,-0.24572072746455667,-0.056177229773998257,-0.05746010919138789
1665946109167527000,0.33952685546875,-0.03876826820299029,-0.43022564646601674,0.07139496491104363
1665946109177608000,0.34960791015625,0.05497486824691295,-0.1815361323237419,-0.04705269694551825
1665946109187690000,0.35968994140625,-0.033926527260243894,0.23695582172870636,-0.16843962712436913
1665946109197770800,0.369770751953125,-0.11853621692284941,0.3973807769626379,-0.32901290478780865
1665946109207851800,0.379851806640625,-0.32111849827617406,0.37166590546965594,-0.41286432342901824
1665946109217933000,0.38993310546875,-0.22986308698877692,0.15319266589283942,-0.20729060517475006
1665946109228014800,0.400014892578125,0.042123131588846445,-0.14997487289011477,0.11756547219455242
1665946109238096000,0.410095947265625,0.030927053183317184,-0.08570669111907482,0.18344824955537914
1665946109248177000,0.420177001953125,-0.043215456870198246,0.11582067435383796,-0.018405571392923592
1665946109258258000,0.4302578125,-0.04740735560208559,0.27744974468052386,-0.24773075211271642
1665946109268340000,0.440340087890625,0.28713118073940275,-0.2731038244307041,-0.07536401467248798
1665946109278421000,0.4504208984375,0.4931722242444753,-0.058500119763612746,-0.08000716430321335
1665946109288502000,0.460501953125,0.12658128395155072,0.8646452374905347,-0.3013192805677652
1665946109298583000,0.4705830078125,-0.16829671152234077,0.7328770524203777,-0.11962824994325637
1665946109308665000,0.4806650390625,-0.26771570165157316,0.46164837421178817,0.04602934524714947
1665946109318745900,0.490745849609375,-0.4273718644700944,0.22294833916425705,0.03935147491842508
1665946109328827000,0.500826904296875,-0.33041137340888377,0.20263094280064106,-0.126804571313411
1665946109338909000,0.510908935546875,0.01826426322609186,0.08916881427168846,-0.27932854416444897
1665946109348990000,0.520989990234375,0.24627792295590042,-0.00037467853128910064,-0.18955095034465191
1665946109359071000,0.531071044921875,0.30356808240786193,0.21846914792358874,-0.06674597006142138
1665946109369151700,0.54115185546875,0.30530586598590015,0.5491933866739273,0.22893019005283713
1665946109379232800,0.551232666015625,0.1955050364434719,0.7876999449759722,0.47852425181940195
1665946109389314800,0.561314697265625,0.04109276562780142,1.0097083729416132,0.3774427353054285
1665946109399395800,0.571395751953125,-0.03948211556077003,1.0729466271430252,0.19862726011723278
1665946109409477000,0.58147705078125,0.03990881654024124,1.3241022391378878,0.25609555261507627
1665946109419559000,0.591558837890625,0.3581869768239557,1.9211960256278513,0.29281010315865275
1665946109429640000,0.601639892578125,0.2988872311152518,2.3844407291203735,0.33685543498173354
1665946109439721000,0.611720947265625,-0.3025485301017761,2.1679431735306975,0.5204701271452009
1665946109449802000,0.621802001953125,-0.7071306167453527,1.1597153945356606,0.770152305586636
1665946109459884000,0.631884033203125,-0.06822422592043877,-0.1536333953976631,0.5038013164170086
1665946109469965000,0.641965087890625,0.5689011267066002,-1.2174603120177983,0.22285861505419013
1665946109480046000,0.652046142578125,0.5655354496657848,-2.3971575873523947,0.19565321274250744
1665946109490126800,0.662126953125,0.4361750563897192,-2.8673417347192762,-0.0961050432756543
1665946109500209000,0.672208984375,0.08227949314936996,-2.978944499117136,-0.2164113386109471
1665946109510290000,0.6822900390625,-0.16426102626547218,-2.798266444927454,-0.33038696961998937
1665946109520371000,0.692370849609375,-0.11877543250620365,-2.4302882880598307,-0.5585691177845001
1665946109530452000,0.702451904296875,0.17578341401591896,-2.15052032956481,-0.6686737525790929
1665946109540534000,0.712533935546875,0.07092530157268047,0.00310439575612545,-0.31593992659449577
1665946109550614800,0.72261474609375,0.048949178216606375,0.5896902322351932,0.3043050183802843
1665946109560695800,0.73269580078125,0.10952259712293744,0.11262333961725235,0.018471330105513332
1665946109570776800,0.74277685546875,0.2517833885043859,-0.00046761751174926756,-0.06639116527438163
1665946109580859000,0.75285888671875,0.29459421009644865,0.06469722083806992,0.03722045423910022
1665946109590940000,0.76293994140625,0.11310600856766104,-0.039648119777441024,0.0056529111951589585
1665946109601021000,0.77302099609375,-0.17917349484562872,-0.11192191334962844,-0.037011779924482104
1665946109611102000,0.78310205078125,-0.1969032128036022,-0.1563999375015497,-0.02486716862246394
1665946109621184000,0.79318408203125,0.13740312221720813,-0.07785013239979743,0.0026499299868941307
1665946109631265000,0.80326513671875,0.25023206740915777,0.0018710545688867567,0.025770254942029714
1665946109641346000,0.813345947265625,0.10595102224647998,0.03323357656002045,-0.0453591909006238
1665946109651427000,0.823427001953125,-0.11357143412232398,0.08292027527093887,-0.09127923055440187
1665946109661509000,0.833509033203125,-0.22892902100905774,0.08575637547969818,-0.06910027810260654
1665946109671590000,0.84358984375,-0.2063314047537744,0.014081716844439505,-0.035431378865242
1665946109681671000,0.8536708984375,-0.04198562281429767,-0.001342062258720398,0.003508154251426458
1665946109691753000,0.8637529296875,0.07708674681186675,0.022028291934728623,0.012061901454627513
1665946109701834000,0.873833984375,-0.00050955695733428,0.04756956042647362,-0.04400485368221998
1665946109711915000,0.8839150390625,-0.06240238789916038,0.025186463704705238,-0.07865019673630595
1665946109721995800,0.893995849609375,-0.06872998348549007,0.013057049971818923,-0.08326894257813691
1665946109732077800,0.904077880859375,-0.01260579907298088,0.01252045887708664,-0.04140475418642163
1665946109742158800,0.914158935546875,-0.005590221222490072,-0.05064473008811474,-0.002298778461664915
1665946109752239900,0.924239990234375,-0.02962459228262305,-0.12099310855567455,0.04694850591868162
1665946109762321000,0.93432080078125,0.029637597894668577,-0.04759469486773014,-0.013634849859774112
1665946109772403000,0.94440283203125,0.11357274929657578,0.07333996149897574,-0.032089667221903796
1665946109782483700,0.954483642578125,0.050533086407184596,0.022994506618380546,-0.015200784002244472
1665946109792565000,0.96456494140625,-0.1713496693521738,0.13602584251463412,-0.10545578607544302
1665946109802646000,0.97464599609375,-0.24324001656472682,0.06445289068818091,-0.15568404431715607
1665946109812727800,0.984727783203125,-0.039984658255428074,-0.10238777680695056,-0.10978037127628922
1665946109822809000,0.99480908203125,0.08944134760275482,-0.1653542283296585,-0.11876914889588952
1665946109832890000,1.00489013671875,0.0401414562523365,0.10481880334615706,-0.1097815403200686
1665946109842971000,1.014970947265625,0.1923402888022363,0.2524567577213049,-0.09263736716508865
1665946109853053000,1.025052978515625,0.24335005281046032,0.21125088710784912,-0.17411372723802923
1665946109863134000,1.035134033203125,0.20099267407432198,0.1954308021634817,-0.15238120337948202
1665946109873215000,1.045215087890625,0.18461437072530387,0.1820160247951746,-0.043690234775096176
1665946109883296000,1.0552958984375,0.34051118101030586,0.555816604205966,-0.3735713006995618
1665946109893378000,1.0653779296875,0.1852577831953764,0.6336725818246602,-0.7327202544234692
1665946109903458800,1.075458740234375,-0.4899046007506549,0.060919455865025514,-0.06629954146817327
1665946109913539800,1.085539794921875,-0.4563683879822492,-0.15702186879217625,0.17751359880939124
1665946109923622000,1.095621826171875,-0.12396817884370684,-0.001107084459066391,0.010387976893037557
1665946109933703000,1.105702880859375,-0.43277576934024686,0.6387257735610008,0.06772051418200135
1665946109943784000,1.115783935546875,-1.2271532923839985,0.44903439183235166,0.3303025062069297
1665946109953864700,1.12586474609375,-1.8362509665310383,-0.6387649365276098,0.68265273970142
1665946109963946800,1.13594677734375,-1.584954484760761,-1.0355927557826041,0.08428264966532588
1665946109974027800,1.14602783203125,0.10053739969991148,-1.0076473487585782,-0.6893998758740723
1665946109984108800,1.15610888671875,-0.03151917385756969,-1.0598597665548324,0.7380893802411854
1665946109994190000,1.166190185546875,-0.873770208710432,0.0785094730913639,1.7481081343062221
1665946110004271900,1.17627197265625,-0.1953827983032912,1.815249679556489,-0.16310732618570326
1665946110014353200,1.186353271484375,-0.4798201368488371,1.0217109454244375,0.21817484115213154
1665946110024434000,1.196433837890625,0.5456599518507719,0.3005921353369951,1.0310345079563557
1665946110034515000,1.206514892578125,0.1267249302059412,-0.08045067028701305,1.4060750044256447
1665946110044597000,1.216596923828125,-1.3009803067475556,-0.20177286466658115,1.5189046802699564
1665946110054678000,1.226677978515625,-2.09904499387145,-0.25721184329390523,1.733446717877686
1665946110064759000,1.236759033203125,-1.695494003841281,0.01973345899581909,1.9221902973622083
1665946110074839800,1.24683984375,-1.2016191842854023,0.4943295775860548,2.068069717632234
1665946110084921900,1.256921875,-1.0708534542560577,0.2894230910688638,1.1324962559595704
1665946110095003000,1.2670029296875,-0.8933902704596519,-0.30960078670084473,-3.0090929691433903
1665946110105084000,1.277083984375,-0.26831428859923034,-0.1259019233852625,-4.114788019677996
1665946110115166000,1.287166015625,0.15374796168804167,-0.274773218947649,-3.1761382192999124
1665946110125247000,1.2972470703125,0.638638168342784,-0.3424105848908424,-1.2791671188682316
1665946110135327700,1.30732763671875,0.6763958712637425,-0.5464040482163429,0.44990532944798467
1665946110145408800,1.31740869140625,0.47338089758157725,-0.19721476297080515,0.6029179625988006
1665946110155490800,1.32749072265625,0.42299730264768004,0.5385422288000583,0.47183425266146656
1665946110165571800,1.33757177734375,0.3982522260349244,0.6069073244959116,0.2547764328405261
1665946110175652900,1.34765283203125,0.44998336312025783,0.21381167750656604,-0.3042974195957184
1665946110185734100,1.357734130859375,0.8884897850669919,-0.0322901582300663,-1.053144486825168
1665946110195816000,1.36781591796875,1.3634510837078093,0.18504910888075826,-1.3986194277226924
1665946110205897000,1.37789697265625,1.3413723767600954,0.4592787224709987,-0.6256158243581652
1665946110215978000,1.38797802734375,1.099797809189558,0.24554244828820226,0.5732254196465015
1665946110226060000,1.39806005859375,1.0922738434255121,0.09730945062935352,1.4574007025152445
1665946110236141000,1.40814111328125,0.9291850758098066,-0.15757541102170944,1.5691902216568587
1665946110246222000,1.41822216796875,0.716610831143707,-0.3776823892802,0.6967708430334926
1665946110256302800,1.428302734375,1.1119932738959788,0.0008919804036617279,-0.08053659500479697
1665946110266385000,1.438385009765625,1.044764050362259,0.14343699555397033,-0.5718298736348748
1665946110276466000,1.4484658203125,0.6275789411246776,0.2994768675714731,-0.8462032796099781
1665946110286547000,1.458546875,0.3299171601511538,0.2602513571202755,-0.5858101759314537
1665946110296628000,1.4686279296875,-0.04317775520831346,-0.10630933416485785,0.32925942689478394
1665946110306710000,1.4787099609375,-0.44551191679462787,-0.39299394018054007,1.2581567718043922
1665946110316790800,1.488790771484375,-0.5873100591003895,-0.6560363893240689,1.7681287396803498
1665946110326871800,1.498871826171875,-0.7784943097352981,-0.5992015724241733,1.8894535644084214
1665946110336953900,1.508953857421875,-1.3400234463691711,-0.1509884338468313,1.1836100648641585
1665946110347035000,1.519034912109375,-1.3453941796220839,0.4038981960326433,0.08824819229543208
1665946110357116000,1.529115966796875,-0.42897491575255986,0.8346943358629941,-0.9502888002455234
1665946110367197000,1.539197021484375,0.9288495602451264,1.3564660471260548,-2.103359349939227
1665946110377279000,1.549279052734375,0.09646832363009453,0.4276362144947052,-2.0879835016310215
1665946110387359700,1.55935986328125,-1.7680805166244506,-0.6006430034041405,-1.26139706889987
1665946110397441000,1.56944091796875,-0.796570064651966,-0.5763993735074997,-0.5150681219711899
1665946110407522800,1.579522705078125,0.5946221356794238,-0.5414712679892778,0.6476005694121122
1665946110417604000,1.58960400390625,2.130564606120437,-0.546437365964055,1.144716562846303
1665946110427684600,1.5996845703125,2.398888502798229,0.07649404161572455,0.20800883644670246
1665946110437765600,1.609765625,1.3325414200507104,0.13351064482331276,-0.1765288255557418
1665946110447847700,1.61984765625,0.7392144387483597,-0.08145663245916367,0.2829445427045226
1665946110457928400,1.629928466796875,0.8508722943343222,-0.3195323981285095,0.37921880506724115
1665946110468009500,1.640009521484375,1.0665547341488302,-0.2199398049980402,0.48080724819004533
1665946110478090500,1.650090576171875,0.8816798127911984,-0.2757172217994928,0.7415510650023818
1665946110488172500,1.660172607421875,0.49150093003138895,-0.05711597192883491,0.7177285831272602
1665946110498253600,1.670253662109375,0.39740357331633563,0.10425298615694045,0.32706805433034897
1665946110508334300,1.680334228515625,0.6449404102921485,0.11644669729769229,-0.0400455946624279
1665946110518416400,1.69041650390625,1.1387656916178763,0.0034895956814289092,0.29319150369167324
1665946110528497400,1.700497314453125,1.1216073438070713,0.34604631104469297,0.2591083245649934
1665946110538578400,1.710578369140625,1.1544634653568266,0.9250327784359454,0.009348550842702388
1665946110548659500,1.720659423828125,1.2490449523270128,1.1708528746217488,-0.045561727735400195
1665946110558741500,1.730741455078125,0.6429296549916267,0.8843664215266704,0.14200374788045883
1665946110568822500,1.740822509765625,0.1966202676763758,0.5972837561041117,0.40226650317758317
1665946110578903600,1.750903564453125,0.13758476239442824,0.049398529419302936,0.6949152782946825
1665946110588984600,1.760984619140625,-0.22536475265622138,-0.2537310154408216,0.5615574859455228
1665946110599066400,1.77106640625,-0.7732727756947279,-0.04798281740248203,-0.19751783757060765
1665946110609147600,1.781147705078125,-1.2801321645081043,0.08731704892516136,-0.827324099355936
1665946110619228700,1.791228759765625,-1.5790759481161831,-0.08157295231521129,-0.3074097063973546
1665946110629310700,1.801310791015625,-1.0220452919453382,-0.08002630739510058,0.5852925817981361
1665946110639391500,1.8113916015625,-0.01052840827703476,0.29058219797611234,0.6281047185644507
1665946110649472500,1.821472412109375,0.11373046060893684,0.26942484365701674,0.099798344835639
1665946110659553500,1.831553466796875,-0.25637831507921216,0.03467266945242881,-0.2501400052115321
1665946110669635600,1.841635498046875,-0.5487666491618379,-0.120859837564826,-0.5006695942625403
1665946110679716600,1.851716552734375,-1.0011848747462033,-0.18482757508456707,-0.3280979818999767
1665946110689797400,1.86179736328125,-1.098195634689927,-0.19614216530323028,0.08118746012896298
1665946110699879400,1.87187939453125,-0.950246714669466,0.11058102013468742,0.2263540559545159
1665946110709960400,1.88196044921875,-0.43325745190996673,0.1677156967639923,-0.07710340568572283
1665946110720041500,1.89204150390625,-0.13621822328157723,0.01582125398814678,-0.3306625716909766
1665946110730122500,1.90212255859375,-0.25273206753134725,-0.24485855767726897,-0.4987836343854665
1665946110740204500,1.91220458984375,-0.1883686086922884,-0.13612228862643241,-0.03369154946058989
1665946110750285600,1.92228564453125,0.11043079800903796,-0.15536942541003226,0.6409662459641695
1665946110760366300,1.932366455078125,0.6064665949910879,-0.2168839245587587,0.16998685656636953
1665946110770448400,1.942448486328125,0.38075054467916486,0.43874213039875026,-0.2702157017737627
1665946110780529400,1.952529296875,0.5449731386303901,0.3442810549378395,-0.8477396953970193
1665946110790610400,1.9626103515625,0.6178250243514776,0.47789165300428865,-0.8168897991031407
1665946110800691700,1.972691650390625,0.3666898706227541,0.14185586384236812,-0.2582949623554945
1665946110810773500,1.9827734375,-0.2085503229122609,0.1658984182089567,0.08499415893554688
1665946110820854500,1.9928544921875,-0.5360070842992514,0.27990239852964877,-0.16026012006103993
1665946110830935600,2.002935546875,-0.24074929572753606,0.023261633121967315,-0.4624783952951431
1665946110841017600,2.013017578125,0.15678163029551506,-0.14598843360245228,-0.07215104397535324
1665946110851098600,2.0230986328125,0.2812152346938848,-0.0671685793876648,0.13472002061307428
1665946110861179600,2.0331796875,0.3004015812009573,0.13192191432714462,-0.06296411343514918
1665946110871260400,2.043260498046875,-0.16420615427307783,0.17451836251616476,-0.16144728401899336
1665946110881342500,2.053342529296875,-0.5979116056788712,0.10326689772903919,-0.2917091561794281
1665946110891423500,2.063423583984375,-0.5752255804877728,0.07429273217916488,-0.398098569843173
1665946110901504500,2.07350439453125,-0.6740243928920477,0.1379401517033577,-0.21826924143731594
1665946110911586600,2.083586669921875,-0.4495797507554292,0.031489363241195674,-0.08893851264715194
1665946110921667600,2.09366748046875,-0.26299926758892833,-0.017346856120228765,0.19312486330866813
1665946110931748400,2.103748291015625,-0.029802360002323985,-0.04479541953802108,0.09306757527589797
1665946110941829400,2.113829345703125,0.2748212228078395,0.030969723281264305,0.057038815039396285
1665946110951911400,2.123911376953125,-0.07467785903923213,0.03272328895032406,0.20626023921370504
1665946110961992400,2.133992431640625,-0.08364734743647277,-0.1516740780234337,-0.0008113163828849792
1665946110972073500,2.144073486328125,0.49130241178460415,0.33592414548099037,-0.1801291881352663
1665946110982155500,2.154155517578125,-0.15085392074696719,0.023114333605766296,-0.18167466401159763
1665946110992236500,2.164236572265625,-0.49684470221213994,0.0005400982260704041,-0.20068799203932283
1665946111002317300,2.1743173828125,0.13919227065630257,0.15230185453295708,-0.22919980077445506
1665946111012398600,2.184398681640625,-0.17198263349346815,-0.07982347829937934,0.19386954419612884
1665946111022480400,2.19448046875,-0.568339985692501,-0.027238720059394834,0.29990941376984115
1665946111032561700,2.204561767578125,-0.2408008067190647,-0.09126374072432518,0.051662967219948765
1665946111042642700,2.214642578125,0.7806143706291914,0.3765905023902654,-0.03696165717244148
1665946111052724500,2.224724365234375,0.03593165653757751,0.07215162849724292,-0.16494389396309853
1665946111062805500,2.234805419921875,-0.5616108966331929,0.11467618049383163,-0.2749602659523487
1665946111072886500,2.244886474609375,-0.055202174196764826,0.021858196064829825,-0.21733692902326582
1665946111082967600,2.254967529296875,0.10935995390713214,-0.3179869222521782,0.2432756723999977
1665946111093049600,2.265049560546875,0.03617605975270271,-0.09665186350345611,0.38752515338063237
1665946111103130600,2.275130615234375,-0.4079670529067516,-0.14726912106275558,-0.20109189666509628
1665946111113211400,2.28521142578125,-0.054215062855556606,0.4468664001435041,-0.27469080136120316
1665946111123293400,2.29529345703125,0.3524018175512552,0.15064765758514403,0.005668693286180496
1665946111133374500,2.30537451171875,0.13388130476661025,0.014355273088812827,-0.09164426447451114
1665946111143455500,2.31545556640625,-0.06864150148443877,-0.010192308190464973,-0.2057487825602293
1665946111153536500,2.32553662109375,0.020174846087768674,0.004763268879055977,-0.10466799669861793
1665946111163618600,2.33561865234375,0.037401290698722,0.004102174621820449,-0.03305763547122478
1665946111173699600,2.345699462890625,-0.061116439741849896,0.07472294028997421,0.12382979328632354
1665946111183780400,2.3557802734375,-0.2136358094830066,0.11385142010748386,0.033082769912481304
1665946111193862400,2.3658623046875,-0.2297341268468648,0.07689560815393924,0.013472645035386085
1665946111203943400,2.375943359375,-0.1918352618895471,-0.01652443382143974,0.07821545858085155
1665946111214024400,2.3860244140625,-0.12344627386145293,0.1310422088831663,-0.02941957122981548
1665946111224105500,2.39610546875,-0.14042612330019474,0.15379063178598879,-0.29697394483983514
1665946111234187500,2.4061875,-0.12453998738229274,0.14012100287377832,-0.41250060468316074
1665946111244268500,2.4162685546875,0.28429632263965904,0.12831833687722682,-0.25880583448708055
1665946111254349600,2.426349609375,0.1687269926983863,0.19425357507765292,-0.23863281503021716
1665946111264431400,2.436431396484375,-0.25100305178165433,0.21287118178606032,-0.20927403407692907
1665946111274512600,2.4465126953125,-0.3911246391773224,0.537944262906909,-0.5887579198211431
1665946111284593700,2.45659375,-0.5998720190316438,0.6857330239295959,-0.8524965345352887
1665946111294674400,2.46667431640625,-0.48898752243835475,0.025243746849894524,-0.47989714760780333
1665946111304756500,2.476756591796875,0.10643624848015605,-1.2907698783785104,0.6898281842887402
1665946111314837500,2.48683740234375,0.6645949588328599,-0.9271399798482656,1.055903137883544
1665946111324918500,2.49691845703125,0.6350620634216815,0.05299509260654449,0.4098012825965881
1665946111335000600,2.50700048828125,0.4454746535241604,0.29426468588113786,0.15603285775482653
1665946111345081600,2.51708154296875,0.38836978751122947,0.2534597972840071,0.04649579371511936
1665946111355162600,2.52716259765625,0.21369952236898243,0.1381523331493139,-0.07379998022615909
1665946111365243400,2.537243408203125,0.049486865289881825,0.09404138874411583,-0.06928337958455086
1665946111375325400,2.547325439453125,-0.12352591496892272,0.05171498966813087,-0.08595862005352974
1665946111385406500,2.557406494140625,-0.3626215982705355,0.07209492987394332,-0.10340776750445366
1665946111395487500,2.567487548828125,-0.4467231922805309,0.0472825601786375,-0.09782909058928489
1665946111405569500,2.577569580078125,-0.37196284258961676,-0.04703296933174133,-0.02112988179028034
1665946111415650600,2.587650634765625,-0.14206804528832434,-0.08491641752421855,0.032950667965412135
1665946111425731000,2.59773095703125,0.21013678838610647,0.025991350346803662,-0.03680792791545391
1665946111435813000,2.607813232421875,0.2696031593659893,0.03969429700672626,-0.09341127414703368
1665946111445894100,2.61789404296875,0.15127371706161646,0.057284898754954336,0.009248305338621138
1665946111455975200,2.62797509765625,0.00018883710298687217,0.1009182887762785,0.023185060754418372
1665946111466056200,2.63805615234375,0.04540215325951576,0.12171733117699622,0.0033697686940431593
1665946111476138200,2.64813818359375,0.03194412127137184,0.13936346250474452,-0.08444938453435898
1665946111486219300,2.65821923828125,0.0504844980251044,0.1104728835850954,-0.0625368279337883
1665946111496300300,2.66830029296875,0.039245968717336654,-0.0033048867642879484,0.04017068234682083
1665946111506382300,2.67838232421875,-0.041155017209053034,-0.022716274198889733,0.03206044112741947
1665946111516463000,2.688463134765625,-0.14925824905335902,0.006784545573592185,-0.10063830279111861
1665946111526544100,2.698544189453125,-0.19647004555072634,0.06499532700181007,-0.15487316632568834
1665946111536625200,2.708625244140625,-0.190062516595982,0.08173135774731635,-0.1375210495084524
1665946111546707200,2.718707275390625,-0.16118947333302347,0.09468611638844013,-0.19065408928096295
1665946111556788200,2.728788330078125,-0.1263887935867533,0.08783201270997523,-0.28357553408443925
1665946111566869000,2.738868896484375,-0.15560148060023785,0.12450959224402904,-0.38570495221614837
1665946111576951000,2.748950927734375,-0.24731694714743643,0.220785023650527,-0.5762877298265695
1665946111587032000,2.759031982421875,-0.24780571704506874,0.25795243252813815,-0.8509136492580175
1665946111597113000,2.769113037109375,-0.17271215334441511,0.3037771951138973,-1.0322574738800525
1665946111607195100,2.779195068359375,-0.16582067679762838,0.25738544629514215,-1.0020835771515966
1665946111617276200,2.789276123046875,-0.157790478544496,0.17621464504003523,-1.2019225511461495
1665946111627357200,2.799357177734375,-0.0554869094222784,0.1763636981219053,-1.1308216007456182
1665946111637438000,2.80943798828125,0.07255732322130352,0.3206774765104055,-0.85556205958575
1665946111647520000,2.81952001953125,-1.6029612660944461,0.16160159779787062,-0.6055459730148315
1665946111657601000,2.82960107421875,-2.2459271614432335,0.6953355495333671,-0.8005161719292402
1665946111667682000,2.83968212890625,-0.9210036690503358,1.0939461605519056,-1.206390344209969
1665946111677764000,2.84976416015625,-0.7472416778594255,1.0473550897687673,-1.4895605123639106
1665946111687845000,2.85984521484375,-0.8931056082993746,1.0772621522545813,-1.4762924499899148
1665946111697926100,2.869926025390625,-1.0697896244168281,1.6460609876304864,-1.0390879044219852
1665946111708008000,2.880008056640625,-1.4620646026730537,2.4700784466564656,-0.7656058943286538
1665946111718089200,2.890089111328125,-1.6194038668513298,2.1001099927544593,-0.991168507644534
1665946111728170200,2.900170166015625,-1.5350982747018336,1.2179063022196293,-1.614957116575539
1665946111738251300,2.910251220703125,-1.3563818759739399,0.8464239366233348,-1.8838570595756172
1665946111748333300,2.920333251953125,-1.0363608175456522,0.907461465910077,-1.4818810637772082
1665946111758414000,2.9304140625,-0.5490204412598163,0.9391215095430612,-0.3938678004056215
1665946111768495000,2.9404951171875,0.11917458789162337,0.3116553811430931,0.892570332378894
1665946111778577200,2.9505771484375,0.759241181602329,-0.12822832050621508,1.9340645672902463
1665946111788658200,2.960658203125,1.171254221964255,-0.19159809213280676,2.2544896764747797
1665946111798739200,2.9707392578125,1.5604244391381739,-0.46030222029983997,2.2098666908942164
1665946111808821200,2.9808212890625,1.564304349311441,-0.7646703670442104,2.8672964342728258
1665946111818902000,2.990902099609375,0.3914719913102686,-0.9530787232249974,3.258459944155812
1665946111828983000,3.000983154296875,-0.3241479290999472,-0.5310042345106601,2.808732893884182
1665946111839064000,3.01106396484375,-0.4103670997858047,-0.3586094400197267,2.2918553844034673
1665946111849146000,3.02114599609375,-0.03808408533111214,-0.5008224467366934,1.7214802396215498
1665946111859227100,3.03122705078125,0.44589302506670353,-0.49676644934415815,1.2907248701930045
1665946111869308200,3.04130810546875,0.6796352915763855,-0.6572983720839023,0.9313128816187382
1665946111879390200,3.05139013671875,0.6977801662065088,-0.6937731225222349,0.6265307472459971
1665946111889471000,3.061470947265625,-3.038480976191163,0.4308627753257751,0.9187444919466972
1665946111899552000,3.071552001953125,-1.2848223681509494,-0.31374212428927417,0.555956597198546
1665946111909634000,3.081634033203125,0.1082160445690155,-0.9215537041485309,-0.038380876320600506
1665946111919715000,3.091715087890625,0.022706629587709904,-0.6183218679577112,-0.5202648138314485
1665946111929796000,3.101796142578125,-0.08289367952495813,0.1371592304587364,-0.8658362008407712
1665946111939877000,3.111877197265625,-1.744614008580148,1.4651082081526516,-1.3100656766094267
1665946111949959000,3.121958984375,-1.588195950900018,0.5722171193867921,-1.7098773339807987
1665946111960040200,3.132040283203125,2.5121137538313865,-1.7155261535227297,-1.7885434589385985
1665946111970121200,3.142121337890625,5.080771817183495,-0.8995984774500131,-1.1432520432516933
1665946111980203300,3.152203369140625,4.952777889955043,0.7556354121953248,-0.6786304984480143
1665946111990284300,3.1622841796875,3.063438307315111,1.1022475404292345,-1.2624528615631163
1665946112000365000,3.172364990234375,1.4602524386845528,1.7335194908529519,-1.4075446385867894
1665946112010447000,3.182447021484375,-0.09654796473756432,1.4136077380180359,-1.8739361156724392
1665946112020528000,3.192528076171875,-3.553804241967201,0.18871113851964472,-4.445270266366005
1665946112030609200,3.202609130859375,-5.116095644021034,0.8007891436517238,-2.422481267570704
1665946112040690200,3.212690185546875,-3.9032875417232513,1.1782388932198284,-0.6585910422429442
1665946112050772200,3.222772216796875,-2.6386753101691602,0.14566636204123495,0.17149156204089522
1665946112060853200,3.232853271484375,-1.5873343656346202,-0.5734796866685151,1.12144674641788
1665946112070934000,3.24293408203125,-0.8773778778135776,-0.7348661804109812,1.5412790091633797
1665946112081016000,3.25301611328125,0.889822348845005,-0.9650748659670353,1.4822937362313269
1665946112091097000,3.26309716796875,1.8894927273750304,-0.7429372586637735,0.3356535118460655
1665946112101178000,3.27317822265625,2.6597435249000787,0.09017010026872158,-0.6496027030147612
1665946112111260200,3.28326025390625,2.5710218698740004,0.31672844662368294,-0.9737325119361281
1665946112121341200,3.293341064453125,1.2784591167293489,0.7006611284703016,-0.4571326503530144
1665946112131422000,3.303421875,0.11258578408583998,1.0024170468896627,0.12588131898865104
1665946112141503000,3.3135029296875,-0.26331790508404374,0.6532119795531034,0.4529366599678993
1665946112151585000,3.3235849609375,-0.3492683418311178,0.45333647294044493,0.8044773306451738
1665946112161666000,3.333666015625,-0.39231238765716553,0.2129728885948658,1.0389581405624746
1665946112171747300,3.343747314453125,-0.3442424764931202,-0.06086567985117435,1.081570955364406
1665946112181829000,3.3538291015625,-0.348493119674921,-0.3236152835279703,0.9755465756207704
1665946112191910100,3.36391015625,-0.3929064080275595,-0.6052624798983335,0.845982476466149
1665946112201991200,3.3739912109375,-0.4640471059165895,-0.8114946620613336,0.6525517620787024
1665946112212073000,3.384072998046875,-0.4222762948967516,-0.7356745741844177,0.3223746358171105
1665946112222154200,3.394154296875,-0.19325944947376847,-0.3676543317407369,-0.16403130916282532
1665946112232235300,3.4042353515625,2.923467526566982,12.320913625341653,-7.887093558272719
1665946112242317300,3.4143173828125,3.0849767699062824,17.083967400342225,-8.489538058140873
1665946112252398300,3.4243984375,-4.354040427911281,8.882952269560098,4.428617237728834
1665946112262479000,3.43447900390625,-1.4027097657762466,8.811077119916677,1.1191758788764476
1665946112272561200,3.44456103515625,-0.42268297600150107,4.848407414898276,1.8896904419042169
1665946112282642200,3.45464208984375,1.6875861533261836,2.2638006717860697,2.424683599920571
1665946112292723200,3.46472314453125,4.141761951321363,2.6980682871192694,1.6956301974415777
1665946112302804200,3.47480419921875,5.2556233571767805,1.5152806445538998,2.5239392161816356
1665946112312886300,3.48488623046875,5.267102198046445,2.2322581170529125,3.1955279794245954
1665946112322967000,3.494967041015625,1.9182371758222578,2.6004011090934274,3.751380823987722
1665946112333048000,3.505048095703125,-4.422102741268277,1.253571489840746,1.9244899526067076
1665946112343130000,3.515130126953125,-8.446542381501198,3.3605794254153967,-2.1581112230852244
1665946112353211100,3.525211181640625,-11.167447354328631,4.296941991639137,-0.2513619482219219
1665946112363292200,3.535292236328125,-6.681164109572768,2.739341377750039,1.0245011606648564
1665946112373374200,3.545374267578125,-0.7348468911886215,-2.5062708730220793,0.27400062713995577
1665946112383455000,3.555455078125,2.7044027508378026,-11.963594225132464,-3.0204373699784277
1665946112393536000,3.565535888671875,3.6459623011827467,-27.03320683915615,-8.070152954640983
1665946112403618000,3.5756181640625,3.6371804443120954,-15.138703101384639,-8.801396268379687
1665946112413699000,3.585698974609375,2.1747394095420836,-5.868311018639803,-7.754675384861231
1665946112423780600,3.595780517578125,-0.561695140850544,-3.7276784613609313,-2.3072987449899314
1665946112433862700,3.605862548828125,-0.536949991172552,-2.474723057591915,2.3328895517118275
1665946112443943700,3.615943603515625,0.747552058982849,-1.414111011365056,2.474372344458103
1665946112454024700,3.626024658203125,0.5682114274093881,-0.8311813593059778,3.0705490161031483
1665946112464106800,3.636106689453125,-0.09104282798264175,0.5524053344577551,3.5505028623342514
1665946112474187800,3.646187744140625,1.5263456439256666,1.7752344800323248,3.3665459326043723
1665946112484268500,3.6562685546875,4.404382960182428,2.6461808634936808,2.618747789905965
1665946112494350600,3.6663505859375,4.6801638948678965,4.478473447787762,0.7098965743273496
1665946112504431600,3.676431640625,-2.865347346031666,-0.8431009296804666,-3.0502088233858347
1665946112514513000,3.686512939453125,-4.563374083220959,-3.2448014211595058,-3.493703993530571
1665946112524594000,3.696593994140625,-1.1080711320161818,-1.6722715336859226,-1.8165210146665571
1665946112534675700,3.70667578125,0.9619839142143726,0.5127671515524387,-0.7889870621770619
1665946112544756700,3.7167568359375,0.9802268423914908,0.9048311174064874,-0.3030642245389521
1665946112554837800,3.726837646484375,0.26932543840315193,0.5687824687629938,-0.25038594279661774
1665946112564919800,3.736919921875,-0.1165922980471514,0.19165128362476824,-0.3741486621960997
1665946112575000800,3.747000732421875,-0.04421327226851135,0.04481880041360855,-0.5246070808194577
1665946112585081900,3.757081787109375,0.09060670158769935,0.15637246497273444,-0.6250956729415804
1665946112595164000,3.767163818359375,0.18367785706017165,0.3628419630229473,-0.6999578025065362
1665946112605245000,3.777244873046875,0.2116962562551722,0.5270429296642541,-0.7483285963132977
1665946112615325700,3.78732568359375,0.17451606096122413,0.6088344931662082,-0.8555307145994157
1665946112625407700,3.79740771484375,0.07300685708709061,0.6320768370658159,-1.0415733645621688
1665946112635488800,3.80748876953125,-0.010946925950050354,0.5923422080487013,-1.2356330975681542
1665946112645569800,3.81756982421875,-0.03917582609057426,0.5946370409876108,-1.3671462849639355
1665946112655651800,3.82765185546875,-0.07438282161541283,0.6247352421313523,-1.427309515634179
1665946112665732900,3.83773291015625,-0.1059234766524285,0.674182871389389,-1.4479016372859477
1665946112675813600,3.847813720703125,-0.14091303003430367,0.7124848372548818,-1.4885153872251509
1665946112685895700,3.857895751953125,-0.20949724837355316,0.8064426393687725,-1.5070169663384556
1665946112695976700,3.867976806640625,-0.2465302902817726,0.7520394335299729,-1.7079888898856936
1665946112706057700,3.8780576171875,-0.30748423293828964,0.6826105079948902,-1.7951666764706373
1665946112716139800,3.888139892578125,-0.511028856517747,0.6409235758662224,-1.9183948506020008
1665946112726220800,3.898220703125,-0.6925719300389289,0.5491103845655918,-2.0426976682275533
1665946112736301600,3.908301513671875,-0.8387434651233255,0.4418097012758255,-2.148025444009155
1665946112746383600,3.918383544921875,-0.9488660739660263,0.3540875786811113,-2.1438957968585193
1665946112756464600,3.928464599609375,-1.0091817187190055,0.18312544734179972,-2.403998539288342
1665946112766545700,3.938545654296875,-1.1533679252050817,0.15146189657747744,-2.338464575365186
1665946112776627700,3.948627685546875,-1.3938637576282022,0.23202830219864845,-2.333194818268716
1665946112786708700,3.958708740234375,-1.5550915536776184,0.26720541404187675,-2.3643626944705844
1665946112796789800,3.968789794921875,-1.6663748768627642,0.19027941074967383,-2.3621133081085977
1665946112806871600,3.97887158203125,-1.8344307653665541,0.07534253349304199,-2.2604732809290287
1665946112816952800,3.988952880859375,-1.8537679185211657,-0.07776654576957226,-2.0527587512537835
1665946112827033900,3.999033935546875,-1.4705074368476867,-0.24812603504061698,-1.9118902910135684
1665946112837115600,4.00911572265625,-0.7820120355326682,-0.5633247878789901,-1.7645682707197963
1665946112847197000,4.019197021484375,-0.17090952436923978,-0.8804238213807344,-1.593734441935271
1665946112857278700,4.02927880859375,0.07953954679146409,-1.0068424621164798,-1.4078708018012345
1665946112867360000,4.039360107421875,-0.033103958830982445,-1.0471668737202882,-1.2585020781107246
1665946112877440800,4.049440673828125,-0.5293372511465102,-1.2441934206426144,-1.0274947895228863
1665946112887522800,4.059522705078125,-1.1316718608994036,-1.5451491285949945,-0.7443537743981927
1665946112897603800,4.069603759765625,-1.779497398173809,-2.171980466222763,-0.47119295908324416
1665946112907684900,4.079684814453125,-2.1980244235396382,-2.9195003765016794,-0.2923411704726517
1665946112917767000,4.089766845703125,-2.3101263696312904,-3.611923253458738,-0.05081432363451458
1665946112927848000,4.099847900390625,-1.9582979680538177,-4.2595337597429745,-0.2026508165448904
1665946112937928700,4.1099287109375,-1.0134276126604527,-4.4633086118817324,-0.9613192397605628
1665946112948010800,4.1200107421875,0.2237853379776701,-3.9732320155650376,-2.0515446992889044
1665946112958091800,4.130091796875,1.0112906736969947,-3.0175913328975437,-2.797628147023916
1665946112968172800,4.1401728515625,1.3626222316682337,-2.0439134737581015,-3.1841271722272038
1665946112978254800,4.1502548828125,1.3384779704928398,-1.37445353923738,-3.2544156372010704
1665946112988335900,4.1603359375,1.01950554433465,-0.8792577002108096,-2.9187393290013075
1665946112998416600,4.170416748046875,0.6555950752973556,-0.5158920055747032,-2.202633670900762
1665946113008498700,4.180498779296875,0.2961842557668686,-0.26305355505943295,-1.2850573459506034
1665946113018579700,4.190579833984375,0.12811908797807992,-0.1213479133427143,-0.36826194224506614
1665946113028660700,4.20066064453125,0.19751812983155248,-0.14480711486339568,0.5046843828618526
1665946113038742800,4.21074267578125,0.3044359512835741,-0.30456279253363605,1.2778764945358037
1665946113048823800,4.22082373046875,0.3358769453383982,-0.5850292546868324,1.8450085657432673
1665946113058904600,4.230904541015625,0.3561633620418608,-0.8233850063413382,2.1461057279929516
1665946113068986600,4.240986572265625,0.36732188491597767,-0.8973620967000723,2.39452811563164
1665946113079067600,4.251067626953125,0.3208512256421149,-0.857787042158842,2.4266094534166154
1665946113089148700,4.261148681640625,0.19499562561661005,-0.8083318141162396,2.154021177292615
1665946113099230700,4.271230712890625,0.2154822410672903,-0.5495920306026936,1.9321512810148298
1665946113109311700,4.281311767578125,0.6800146462827921,-0.13370412156879902,1.586657489286363
1665946113119393800,4.291393798828125,1.1408991965152322,0.4113835833519697,0.9154855632159858
1665946113129474600,4.301474609375,1.243658875374496,0.8738397668153047,0.3725141928620636
1665946113139555600,4.3115556640625,1.3701613950014113,1.117372044324875,0.12009133741036057
1665946113149637600,4.3216376953125,1.5472306110441685,1.2654834614306687,-0.27111761904954906
1665946113159718700,4.33171875,1.7705857774436473,1.1795914768725633,-0.46719636372774836
1665946113169799700,4.341799560546875,1.8609063920989632,1.076156821361184,-0.4572214246150106
1665946113179881700,4.3518818359375,1.6736653261318801,0.96982176823318,-0.2882311048053205
1665946113189962800,4.361962646484375,1.3389923497557639,0.9754062903672456,-0.0412668070204556
1665946113200043800,4.372043701171875,1.05944446375221,1.090541905066371,0.2304455630518496
1665946113210125600,4.38212548828125,0.9230299141809344,1.2572241671293973,0.5444700114138424
1665946113220206800,4.392206787109375,0.7427917127132415,1.6652718840569256,0.3736610248096287
1665946113230288000,4.402287841796875,0.7109452065974473,1.8266858503282069,0.5388293021131306
1665946113240370000,4.412369873046875,0.6957973218262196,1.9396113877624273,0.6750980865381657
1665946113250451000,4.422450927734375,0.5763350760996342,2.0030361044466494,0.7441689193505794
1665946113260532700,4.43253271484375,0.47408290837109085,2.0494687697976826,0.7980505124680698
1665946113270613800,4.44261376953125,0.3777575003430247,2.0933114186555146,0.7089044945500791
1665946113280694800,4.45269482421875,0.23752368474453686,2.03050629517436,0.6105934656627476
1665946113290776800,4.46277685546875,0.06539777032285929,1.9029139344841242,0.5570913003169
1665946113300857900,4.47285791015625,-0.07360796478539705,1.7964140461832283,0.5249437654279172
1665946113310939000,4.48293896484375,-0.173708507438004,1.477370308354497,0.40283801945522424
1665946113321021000,4.49302099609375,-0.30420564965903757,1.3380015851527451,0.299572144639492
1665946113331101700,4.503101806640625,-0.3697320147976279,1.210357202014327,0.2722043913729489
1665946113341183700,4.513183837890625,-0.4669765834972262,1.1818272731006145,0.2701740545891225
1665946113351264800,4.5232646484375,-0.5413435499563813,1.2479939819693564,0.31712606763914225
1665946113361345800,4.533345703125,-0.5828481112554669,1.3079682659387588,0.3463286351174116
1665946113371427800,4.543427734375,-0.5662623026356101,1.3989923526883123,0.45175592575073237
1665946113381508900,4.5535087890625,-0.5289189526692033,1.4760305841833352,0.4811427637547254
1665946113391589600,4.563589599609375,-0.5835290792569517,1.4614806653052568,0.3236822112843394
1665946113401671700,4.573671630859375,-0.8752782751858234,1.327999831098318,0.16307751556932926
1665946113411752700,4.583752685546875,-1.2431564788103102,1.2399357631981371,0.05776113796457648
1665946113421834800,4.593834716796875,-1.5733035021945834,0.9723597622781991,-0.1312811322055757
1665946113431915500,4.60391552734375,-2.0513240422755477,0.735605016079545,-0.42575551531463857
1665946113441996500,4.61399658203125,-2.4968638699904084,0.5629214677751064,-0.5152521002359688
1665946113452078600,4.62407861328125,-2.8305896286442875,0.35640345440804955,-0.6775486945606768
1665946113462159600,4.63415966796875,-3.1215678402006626,-0.07864683573544025,-0.6704192810721695
1665946113472240600,4.64424072265625,-3.415999407081306,-0.19242402156293392,-1.315345078317076
1665946113482322700,4.65432275390625,-3.507427398456633,0.1884814214169979,-2.370800180172175
1665946113492403700,4.66440380859375,-3.5227898027613755,-0.14890870496332645,-2.593189278018474
1665946113502485800,4.67448583984375,-3.4680697860583662,0.10407529150247573,-2.681323488545418
1665946113512566500,4.68456640625,-3.123706313534081,0.6740934395402669,-2.522323305417597
1665946113522647600,4.6946474609375,-2.5142732699528336,1.5236317087918518,-2.396496639225632
1665946113532729600,4.7047294921875,-1.8158967452883719,2.0029712225168943,-2.1920245986029503
1665946113542810600,4.714810546875,-1.5787582604691386,0.4427268161207437,-1.2161512752458452
1665946113552891600,4.7248916015625,-1.5094140906080602,-2.2889117321670054,-2.2228965605981648
1665946113562973700,4.7349736328125,-0.9590589666783809,-4.979492878401279,-3.763204825033247
1665946113573054500,4.745054443359375,0.5534396459415555,-7.367616679948568,-4.154790944242477
1665946113583136500,4.755136474609375,2.0892551290020345,-9.290374548065662,-3.9632144794195887
1665946113593217500,4.765217529296875,2.61236977930665,-8.405854981803893,-2.5785282999813557
1665946113603298600,4.775298583984375,1.6197189241498708,-2.7080361389040943,-0.17248773347139357
1665946113613380600,4.785380615234375,0.15160072052627802,3.2095734559118747,1.9066293017454443
1665946113623461600,4.795461669921875,0.4585094916641712,5.368751723706722,3.6491315788686274
1665946113633543700,4.805543701171875,1.3851038203284143,5.4779900970607995,4.34192153557241
1665946113643624400,4.81562451171875,1.5462217262625693,5.146257558050752,4.908167179334163
1665946113653705500,4.82570556640625,1.015424997022748,5.144247387272119,5.454297671306133
1665946113663787500,4.83578759765625,0.6927268283396959,4.611709367322922,5.102160642170905
1665946113673868500,4.84586865234375,0.9220265823572874,2.4650012895226476,3.3953070399254557
1665946113683950600,4.85595068359375,2.163712696354091,-0.5200058706343174,0.9974790059655905
1665946113694031600,4.866031494140625,4.52443031232059,-2.6202725152552127,-1.6371066968023775
1665946113704112600,4.876112548828125,6.519205953422189,-3.61466173851192,-4.121888207072019
1665946113714194400,4.8861943359375,7.579799294948577,-3.732106799197197,-5.910052311304211
1665946113724275700,4.896275634765625,7.4126757188588375,-3.6519659255117176,-6.308446649223566
1665946113734356700,4.906356689453125,4.943627199772,-3.2034774771243333,-4.105671231764555
1665946113744438500,4.9164384765625,1.1955227671064437,-1.5349597430139779,-1.0881785369358956
1665946113754519800,4.926519775390625,-1.1766086616694926,1.0787070903658866,0.38666897494271396
1665946113764601600,4.9366015625,-2.3480242847405375,2.257321246638894,1.4612674609459935
1665946113774682600,4.9466826171875,-1.8294263812080025,2.288519517979026,1.4520004509069024
1665946113784763600,4.956763671875,-0.4872461951963603,1.8746166452825068,0.5190785266563296
1665946113794845700,4.966845703125,0.6552624823421239,1.1977554945945739,-0.5749157108210027
1665946113804926700,4.9769267578125,1.2579524814039469,0.691117055055499,-1.297175069245696
1665946113815008800,4.9870087890625,1.5668267073959112,0.31041151856184,-1.6148182926267385
1665946113825089800,4.99708984375,1.9877502725094556,0.32528117091357706,-1.786447947964072
1665946113835170800,5.0071708984375,1.8882909503698349,0.6156383279621601,-1.6034560638740658
1665946113845252900,5.0172529296875,1.5778297474473715,0.737412357762456,-1.151755083180964
1665946113855333600,5.027333740234375,1.294241353881359,0.713243546667695,-0.6701792617712169
1665946113865415700,5.037415771484375,0.76571549218297,0.5908727200180292,-0.05922748419009149
1665946113875496700,5.04749658203125,0.10078207690967246,0.40282326027750964,0.38605055078342554
1665946113885577700,5.05757763671875,-0.44495968973934646,0.2562456286102533,0.6666836016751826
1665946113895659800,5.06765966796875,-0.7288859369575977,0.4852542907267809,0.2640186006993055
1665946113905740800,5.07774072265625,-0.7577344303011894,0.6491133120626211,-0.03203516055569053
1665946113915822800,5.08782275390625,-0.3896434607088566,1.0157985065102577,-0.4083098749950528
1665946113925903600,5.097903564453125,0.22259992758538572,1.0830588558346033,-0.4217590660896152
1665946113935984600,5.107984619140625,0.7554676544129848,1.259026248115301,-0.6614004736404866
1665946113946066700,5.118066650390625,0.9220563929736614,1.373694245302677,-0.9378484208673238
1665946113956147700,5.128147705078125,1.0260101769883185,1.0796785657465457,-0.9516978633258492
1665946113966229800,5.138229736328125,0.9833961931426077,0.9218459650933742,-1.0311262048278003
1665946113976310800,5.148310791015625,1.1089127704720942,0.6484808593779802,-0.8844657902479172
1665946113986391600,5.1583916015625,0.867583555964753,0.4172930996567011,-0.6880833864480257
1665946113996473600,5.1684736328125,0.6434826126992702,0.18291501946151256,-0.4677238947331905
1665946114006554600,5.1785546875,0.1867079820036888,0.24542262130081652,-0.4964990305796265
1665946114016636700,5.18863671875,-0.15249832695312798,-0.052744332715868945,-0.16312336400505154
1665946114026717700,5.1987177734375,-0.22590119762048125,-0.04573416169285774,-0.21998601875994353
1665946114036798700,5.208798828125,-0.25268062960505483,0.045907764694094653,-0.35609628815501926
1665946114046880800,5.218880859375,-0.2605539933286607,-0.04808218612372875,-0.5260507402891292
1665946114056961500,5.22896142578125,-0.3619548049248755,-0.12840893777012824,-0.8169263317212462
1665946114067043600,5.239043701171875,-0.48321942389830946,-0.5325725067406892,-1.2127519881963729
1665946114077124600,5.24912451171875,-0.6298362185321748,-0.8888415211141109,-1.588175784894824
1665946114087205600,5.25920556640625,-0.7739302166901528,-0.9228408213496208,-1.9865739222064613
1665946114097287700,5.26928759765625,-0.6749824973344802,-1.0116226821303367,-2.3853265720441934
1665946114107368700,5.27936865234375,-0.48828781320378184,-0.957807505312562,-2.8032994706586
1665946114117450800,5.28945068359375,-0.16421908681988714,-0.7829208940058946,-3.296769216544926
1665946114127531500,5.299531494140625,0.03128594962358475,-0.7265285601764917,-4.00355291954875
1665946114137612500,5.309612548828125,-0.026438947983831167,-0.8432838850319385,-4.6063899258658285
1665946114147694600,5.319694580078125,-0.04123246635943651,-0.8689823899120092,-4.798440730202198
1665946114157775600,5.329775634765625,0.009282645999640226,-1.0720908870965242,-4.978839967450499
1665946114167857700,5.339857666015625,0.0949127647511661,-1.368899412241578,-5.046318343439698
1665946114177938700,5.349938720703125,0.0969933704175055,-1.8214461961090564,-4.910359136420488
1665946114188020700,5.360020751953125,-0.04753814237490296,-2.279980822214484,-4.333144939398765
1665946114198101500,5.3701015625,-0.598097995096445,-3.040269613173604,-3.270820828557014
1665946114208182500,5.3801826171875,-1.2486371021784841,-3.563477494719624,-2.1779171627953646
1665946114218264600,5.3902646484375,-1.5338440368570387,-3.81535499124825,-1.2525097058281303
1665946114228345600,5.400345703125,-1.5749031924761832,-3.6747903362601995,-0.5492915863513946
1665946114238427600,5.410427734375,-1.428036222473532,-3.074413874837756,-0.26170184818953274
1665946114248508700,5.4205087890625,-1.1617070067442954,-2.3633663769096134,-0.2098357596129179
1665946114258589700,5.430589599609375,-0.7901778793968259,-1.7119383581638334,-0.23053950667930764
1665946114268671700,5.440671630859375,-0.019940452810004353,-1.0935697284549475,-0.15044831735445185
1665946114278752500,5.45075244140625,0.3652899406969547,-0.38064182360768317,0.0420978510171175
1665946114288834600,5.46083447265625,-0.231437935090065,0.15936872417926787,0.8913497045427561
1665946114298915600,5.47091552734375,-0.9693301853239535,0.4528098187178373,1.7600716899529099
1665946114308997600,5.48099755859375,-1.1970458850204944,0.041055063965916634,2.045288561503589
1665946114319078700,5.49107861328125,-0.9252005362182855,-1.128186868327856,2.2530732338055968
1665946114329159700,5.50115966796875,-0.36333646854162216,-2.367981177228689,2.7051190824136135
1665946114339241700,5.51124169921875,0.4213894290596246,-3.2651860375404356,3.139764006626606
1665946114349322500,5.521322509765625,1.4220049794852734,-3.691273269027471,3.1091467500448227
1665946114359404500,5.531404541015625,2.4768980635434388,-3.776010238331556,2.6792998737633225
1665946114369485600,5.541485595703125,2.5288743344962596,-3.492959604904055,2.2138518150076267
1665946114379567600,5.551567626953125,1.8042437168955803,-2.703939809501171,1.7628543064087627
1665946114389648600,5.561648681640625,1.666227138955146,-1.9157330840468405,1.179803146861866
1665946114399729700,5.571729736328125,1.8622398326598106,-1.1161053853899239,0.9144732443682849
1665946114409811700,5.581811767578125,2.216822647511959,-0.3037245881438255,0.9250029678195715
1665946114419892500,5.591892578125,2.6728248325303197,0.5579682292819023,0.956530763375014
1665946114429973800,5.601973876953125,3.0308710857093333,1.364455292314291,0.9464217495538294
1665946114440054800,5.6120546875,3.134546564239263,2.011593504911661,1.0213261838905512
1665946114450136000,5.622135986328125,3.0022669225156307,2.1416654074579475,1.2903089828684926
1665946114460217900,5.6322177734375,2.664754046538472,2.1099246998041865,1.607767497332394
1665946114470299000,5.642298828125,2.2834745095491407,2.005261963802576,1.7465324094220995
1665946114480381000,5.652380859375,1.940781308324635,1.903731096085906,1.5601700259856879
1665946114490462000,5.6624619140625,1.812979688797891,1.6928823600381613,1.6944637840107082
1665946114500543700,5.672543701171875,1.568617390204966,1.6422803000479935,1.7458492494635283
1665946114510624800,5.682624755859375,1.2114125562861562,1.7263778024047611,1.8752794931054113
1665946114520706000,5.6927060546875,1.0238085022255778,1.8491998799532652,2.016100314811617
1665946114530787800,5.702787841796875,0.9267594560980796,1.9340461548507213,2.144682417191565
1665946114540869000,5.712869140625,0.8054056975364685,2.0408377195745704,2.2490303881555795
1665946114550951000,5.722950927734375,0.7311167647495865,2.041401783198118,2.22686809457764
1665946114561032000,5.733031982421875,0.6975771909803151,2.0138287166178226,2.1407573527023196
1665946114571113700,5.74311376953125,0.5637339532017708,2.125330358728766,1.9206737553194164
1665946114581194800,5.75319482421875,0.3538306813105941,2.2952508720606564,1.6859427700333296
1665946114591276800,5.76327685546875,0.06191197403371334,2.4378771357536313,1.3494538302764296
1665946114601357800,5.77335791015625,-0.18299626800417898,2.4640391664922237,1.127812189796567
1665946114611439000,5.783439208984375,-0.2006418148100376,2.4538006810724733,1.004713925655186
1665946114621521000,5.79352099609375,-0.21225275762677193,2.469234397047758,0.6435133000984787
1665946114631602000,5.803601806640625,-0.05842208609133959,2.25930569845438,0.7963909086927771
1665946114641683700,5.81368359375,0.16105477757006884,1.9682085366934536,1.119729128845036
1665946114651765000,5.823764892578125,0.08776187008321285,2.0568822609245774,0.6395239382013678
1665946114661846800,5.8338466796875,-0.1376072664871812,1.79613113758862,0.7053185988873243
1665946114671927800,5.843927734375,-0.5682286342725157,1.3691226996034382,0.8351631224185228
1665946114682009000,5.854009033203125,-1.1844552835166453,0.9768050512492656,0.705940237917006
1665946114692091000,5.8640908203125,-1.8578408670485018,0.6736316672474145,0.17223580453693865
1665946114702172200,5.874172119140625,-2.3989500237271186,0.12013386137783527,-0.0518663808375597
1665946114712253700,5.884253662109375,-2.980391775316,-0.4669435580104589,-0.5880693530350923
1665946114722335000,5.8943349609375,-3.475181371629238,-0.823323631542921,-1.523605405306816
1665946114732416800,5.904416748046875,-3.716380530016124,-1.4457552729070187,-1.7156401352912187
1665946114742498000,5.914498046875,-3.6381726702198383,-1.933392074856162,-2.276478367051482
1665946114752579800,5.924579833984375,-3.2083728479504585,-2.222160501408577,-2.868788134135306
1665946114762660900,5.934660888671875,-2.522005033248663,-2.139804874283075,-2.8839599843040107
1665946114772742100,5.9447421875,-1.690911352226138,-1.44571494089663,-2.283096031625569
1665946114782824000,5.954823974609375,-1.011866427758336,-0.3924164325535297,-1.3133373917564748
1665946114792905000,5.964905029296875,-0.9851682443164288,0.08585632872283458,-0.3525771741181612
1665946114802986800,5.97498681640625,-1.6762958207659422,-0.9213169727832078,0.819410842013359
1665946114813068000,5.985068115234375,-2.006687904952466,-3.2888328705877066,0.9884931509554385
1665946114823149800,5.99514990234375,-1.7800924414575099,-5.916392035719752,-0.4078083552137017
1665946114833230800,6.00523095703125,-1.865156743019819,-7.6998776267468925,-1.5338094039350747
1665946114843313000,6.01531298828125,-1.887697368390858,-6.543697420600056,-0.5196145332291722
1665946114853394000,6.025393798828125,-1.5401222403436898,-2.31290635573864,2.274689730069041
1665946114863475000,6.035474853515625,-1.1800514955997465,1.8206068226754664,4.279266926477849
1665946114873556700,6.045556640625,0.25977789438962934,4.085506395614147,5.8004036035835735
1665946114883638000,6.055637939453125,1.7026463598139583,4.120876399680972,6.775107883161306
1665946114893719800,6.0657197265625,2.1357798565506934,3.230628518900275,6.913790377664566
1665946114903801000,6.075801025390625,1.9600532872885466,2.674370600667596,7.093037522268295
1665946114913883000,6.0858828125,1.5818462896123529,1.9480057066202163,6.949316449075937
1665946114923964000,6.0959638671875,1.223845044618845,0.9067208766758441,5.945366201269627
1665946114934046000,6.1060458984375,1.115146769490838,-0.1214005203127861,4.53452822022587
1665946114944126700,6.116126708984375,1.5871085940547287,-0.9908031814634799,3.27212518915385
1665946114954208800,6.126208740234375,2.495995562723279,-1.6863000590384005,2.1300261153295637
1665946114964289800,6.136289794921875,3.495882798874378,-2.4068787708997723,0.9492658869385718
1665946114974371000,6.14637109375,4.2915807568669315,-2.8900585934400556,0.08059270910620689
1665946114984452900,6.156452880859375,4.548558791404962,-3.2985733433574436,-0.47627808032780883
1665946114994534000,6.166533935546875,3.8939971508085724,-3.3737913736879825,-0.5479705668807029
1665946115004616000,6.176615966796875,2.161433937767148,-2.536104285749793,0.21452420969009398
1665946115014697000,6.186697021484375,0.562400110782124,-1.1289315492153167,1.1222326360985635
1665946115024778800,6.19677880859375,-0.20566168879866598,0.03970657196640968,1.7258546553134917
1665946115034859800,6.20685986328125,-0.0099386622229591,0.7424538590610027,1.8406547544479368
1665946115044941800,6.21694189453125,0.737639736777544,1.0359037214279174,1.7090739086434243
1665946115055022800,6.22702294921875,1.2502362079381941,1.0810784956723452,1.3464189926251768
1665946115065105000,6.23710498046875,1.3115794421732425,1.1387684680968522,0.9520990645378827
1665946115075186000,6.24718603515625,1.6855016021370888,1.008919852912426,0.8752385276973247
1665946115085267000,6.257266845703125,2.0150527054548264,0.8660422448068856,0.6883008285909891
1665946115095348700,6.2673486328125,2.1143021842360494,0.7309270873963832,0.7883128161773085
1665946115105429800,6.2774296875,1.7859867601931094,0.6069026483207941,0.7105588376283645
1665946115115511800,6.28751171875,1.635951681548357,0.4592980116933584,0.7030801723107695
1665946115125592800,6.2975927734375,1.5709551855027675,1.1869207968473434,0.40222412534058094
1665946115135675000,6.3076748046875,1.4181025652192532,0.8508972826451062,0.5618444861933589
1665946115145756000,6.317755859375,1.2472165678560734,0.3974018197506666,0.7057263029053806
1665946115155838000,6.327837890625,1.0868566406823694,0.5928787991434336,0.44898909138590093
1665946115165918700,6.337918701171875,0.5828767528280615,0.2809013464391231,0.4880535660564899
1665946115176000800,6.348000732421875,0.034656302839517594,0.11632336317896842,0.1786927255913615
1665946115186081800,6.358081787109375,-0.5090193433262408,0.06264204187393188,-0.15430618009269237
1665946115196162800,6.368162841796875,-0.8533693718470633,-0.2598842773735523,-0.05092836933508515
1665946115206244900,6.378244873046875,-0.9794929751589894,-0.4659592231482267,-0.27314868648573754
1665946115216326000,6.388325927734375,-0.9001438363730907,-0.5720826793521643,-0.798307409838587
1665946115226408000,6.398407958984375,-0.9917176659598946,-0.682301295915246,-1.1375573387414217
1665946115236488700,6.40848876953125,-0.7524142581917345,-0.5023989022731781,-1.7237182278066872
1665946115246570800,6.41857080078125,-0.5375722147241234,-0.1009703112244606,-2.0832399603657423
1665946115256651800,6.42865185546875,-0.6765456549979746,-0.14428162968456745,-2.2162810879811645
1665946115266733800,6.43873388671875,-0.8537938808694482,-0.24550854601860045,-2.023643862058967
1665946115276814800,6.44881494140625,-0.9348802187114953,-0.2840402289867401,-1.7554728178553283
1665946115286897000,6.45889697265625,-1.1723135948240757,-0.19664894578158854,-1.6530781729161739
1665946115296978000,6.46897802734375,-1.6720830253764987,-0.578082796549797,-1.4175051838479935
1665946115307060000,6.47906005859375,-2.021912362091243,-0.559593200135231,-1.4405758244425058
1665946115317140700,6.489140625,-2.2732836626634,-0.4791127192318439,-1.5540680558487772
1665946115327221800,6.4992216796875,-2.0925044861868023,-0.6188736566215753,-1.8261301161415875
1665946115337303800,6.5093037109375,-1.8577704321607946,-0.687858930042386,-2.0070807036623357
1665946115347384800,6.519384765625,-1.765571164152026,-0.4497258812278509,-2.0927325958542524
1665946115357467000,6.529466796875,-2.1168495306313035,-0.3959516209423542,-1.787489712101966
1665946115367548000,6.5395478515625,-2.415408406575024,-0.5326368041485547,-1.4605585820242761
1665946115377630000,6.5496298828125,-2.2555273489594456,-0.3883995981276035,-1.3749046440057455
1665946115387710700,6.559710693359375,-2.269803711593151,-0.36981940082013603,-1.170240149550885
1665946115397792800,6.569792724609375,-2.5863693688705562,-0.7579618093162774,-0.7518987098850309
1665946115407873800,6.579873779296875,-2.666124750369787,-0.6615209582149982,-0.8069822261381894
1665946115417955800,6.589955810546875,-2.23404412368685,-0.5475415278136729,-1.1484617407239972
1665946115428038000,6.600037841796875,-1.4015595728278158,-1.2830150264680384,-1.4054573109187185
1665946115438120000,6.610119873046875,-0.671487933216989,-2.129115137964487,-1.6768536007791757
1665946115448200700,6.62020068359375,-0.8364625145792961,-2.7740385971218346,-1.3972203745797276
1665946115458281700,6.63028173828125,-1.4100192120067774,-2.8340906225025653,-1.1611119634605944
1665946115468363800,6.64036376953125,-1.6235869977548718,-3.179650611335039,-0.8442674892418086
1665946115478444800,6.65044482421875,-1.6892378660559653,-4.023538307479024,-0.25891915866844356
1665946115488526800,6.66052685546875,-1.3535611194647847,-4.107440579524636,0.3425640218868852
1665946115498607900,6.67060791015625,-0.48966655421108,-3.1735189767122267,1.076016755303368
1665946115508690000,6.68068994140625,-0.5038086229406297,-2.458932198742032,0.7023215359631926
1665946115518770700,6.690770751953125,-0.9589796178318559,-2.1071908909261223,0.3851221108268946
1665946115528852700,6.700852783203125,-0.9727427702464163,-1.53885382784307,0.35285336071103807
1665946115538933800,6.710933837890625,-0.21154555920548737,-0.46512101875841616,0.548773261565715
1665946115549015800,6.721015869140625,0.6242074188649654,0.9263380158156156,0.7470159062795341
1665946115559096800,6.731096923828125,0.7010112570822239,1.4964263064801693,0.8271757769264281
1665946115569179000,6.741178955078125,-0.1503822755140718,-0.21650983054935932,0.912407690140605
1665946115579260000,6.751260009765625,-0.4521610359529033,-3.4896225694358347,1.1993885026238857
1665946115589342000,6.761342041015625,-0.2871861988622695,-5.0730041057914494,2.115334449893236
1665946115599422700,6.771422607421875,0.322291268382594,-5.4597763949781655,2.9459347944408654
1665946115609503700,6.781503662109375,0.99893446547091,-5.131009135514497,3.139157565166056
1665946115619585800,6.791585693359375,1.0250522186763584,-4.400878166931867,2.587003867381811
1665946115629666800,6.801666748046875,1.8296729033149777,-3.747444069060683,1.5767073192887007
1665946115639748900,6.811748779296875,2.4960914243131875,-3.299780381059646,0.5858350181117653
1665946115649830000,6.821829833984375,2.2756571137964725,-2.691393631660938,-0.191409291562438
1665946115659912000,6.831911865234375,1.7695383142173289,-1.6571183882176874,-0.6414537372201681
1665946115669992700,6.84199267578125,1.3932695911273358,-0.18419219979047774,-0.5799797162123024
1665946115680074800,6.85207470703125,1.4079723624795675,1.2604115649938583,-0.25152006139308214
1665946115690155800,6.86215576171875,1.753102143201232,2.329700254151225,0.08134060486406088
1665946115700237800,6.87223779296875,2.17643364623934,2.8062217878460882,0.5120614875011146
1665946115710318800,6.88231884765625,2.6687530530467627,2.838760952401161,1.0251850512757896
1665946115720401000,6.89240087890625,3.1691663344606757,2.724905440640449,1.478549727397412
1665946115730482000,6.90248193359375,3.4758833824187514,2.60280232501626,1.7433606475181878
1665946115740563000,6.91256298828125,3.4392435045465826,2.581250418421626,1.881931498340517
1665946115750644700,6.922644775390625,3.2409394850343465,2.7603777360379693,1.7377502602905035
1665946115760725800,6.932725830078125,2.9429589935004707,2.7852766149729487,1.5602949675396083
1665946115770807800,6.942807861328125,2.3038626330614087,2.8014456594854593,1.521216464343667
1665946115780888800,6.952888916015625,1.7118693845808506,3.073718293789029,1.179465950796753
1665946115790971000,6.962970947265625,1.267513798214495,3.209884421557188,0.9585856500782072
1665946115801052000,6.973052001953125,0.842169494049251,3.2259371462136506,0.8925694555960595
1665946115811134000,6.983134033203125,0.35210371138751506,3.2294694119930267,0.9773727681346237
1665946115821215000,6.993215087890625,0.0188180977165699,3.2900317249834536,1.0690027118228376
1665946115831296800,7.003296875,0.11455752255022525,3.3629262808024882,1.0917061265401542
1665946115841377800,7.013377685546875,0.2446872927635908,3.510543776911497,1.094014549612999
1665946115851459800,7.0234599609375,0.009391513201594353,3.69308411784172,0.9773295135147869
1665946115861540900,7.033540771484375,-0.43454029479473827,3.866687119078636,0.7207265958994626
1665946115871623000,7.043622802734375,-0.8744742653265595,3.8695951154798265,0.5692442410558461
1665946115881704000,7.053703857421875,-1.2504869678288697,3.6297330509155987,0.6552155744604766
1665946115891785000,7.063784912109375,-1.637646795028448,3.4122798020362852,0.3827142459675669
1665946115901867000,7.073866943359375,-1.9287936411499975,3.016398908242583,-0.005395137041807174
1665946115911947800,7.08394775390625,-2.1239760215103627,2.233544065210223,-0.2306285184033215
1665946115922029800,7.09402978515625,-2.1161948661148546,1.1687982801795005,-0.1537695889979601
1665946115932110800,7.10411083984375,-2.2239716424837708,-0.21551789690256118,-0.18487711331471798
1665946115942193000,7.11419287109375,-2.5446990956157443,-1.7797148403167724,-0.6080453886151314
1665946115952274000,7.12427392578125,-3.0480937309280036,-3.0800533420294522,-1.4404533671066164
1665946115962356000,7.13435595703125,-3.584414776547253,-3.718814771425724,-2.0926338116548955
1665946115972437000,7.14443701171875,-4.305171475324035,-3.712277478611469,-2.402890578046441
1665946115982518800,7.154518798828125,-4.732763558416068,-2.8849510411679744,-1.843862610578537
1665946115992599800,7.164599853515625,-4.768061958551407,-1.39968676469326,-1.2764080294184386
1665946116002681900,7.174681884765625,-4.318433400218188,-0.4843015200465917,-0.6907571357019245
1665946116012763000,7.184762939453125,-3.752974230659008,-1.4929408024519681,-0.3771775084979832
1665946116022844700,7.1948447265625,-2.6915070289075373,-3.8155221645087,-1.5219029853031039
1665946116032926000,7.204926025390625,-1.2646464260846375,-5.9590901907175775,-3.0928689844608304
1665946116043007700,7.2150078125,0.1615600967437029,-6.372786142665148,-4.049240611751378
1665946116053089000,7.225089111328125,0.7087558798596263,-4.568986662405729,-3.4125153643578288
1665946116063169800,7.235169677734375,1.4516539755567908,-1.2124994747400284,-0.7519540933340787
1665946116073251800,7.245251953125,2.7502503097772597,1.927530489346385,2.0301111583769322
1665946116083332900,7.255332763671875,3.3847634340792894,3.2597131590873003,3.793556416416168
1665946116093414700,7.26541455078125,3.049605596795678,3.238144885879755,5.146641004410386
1665946116103496000,7.275495849609375,1.9843319884985684,3.312742738485336,5.563395174884795
1665946116113577700,7.28557763671875,-0.20497692140489815,3.6027760704070326,5.791518870860338
1665946116123659000,7.295658935546875,-1.7609864667102693,2.445056233602762,4.654048625880479
1665946116133740800,7.30574072265625,-1.2542404751434921,0.6504331624895334,2.3752118591345845
1665946116143821800,7.31582177734375,1.1409373365685342,-0.9486503853887319,0.8927044801525771
1665946116153903600,7.325903564453125,3.538386892604828,-2.2386124545156956,-0.48133273336887356
1665946116163985000,7.33598486328125,5.701390271645784,-2.613108614975214,-1.653725238648057
1665946116174066700,7.346066650390625,7.145038927662372,-2.232249933746457,-2.912828351391852
1665946116184147700,7.356147705078125,7.238966919159889,-1.468770822313428,-3.3686420281007883
1665946116194229800,7.366229736328125,5.54568883780241,-0.7079869413137435,-3.0701603090465066
1665946116204310800,7.376310791015625,2.785168478423357,0.020363573592901228,-2.397631050083041
1665946116214392800,7.386392822265625,0.848697142252326,0.6755968298405408,-1.6702017416745423
1665946116224473600,7.3964736328125,-0.12327493588253854,1.0777414602041244,-0.7580828053474425
1665946116234555000,7.406554931640625,-0.44385158236697314,1.1527806268364191,-0.024854309140890835
1665946116244636700,7.41663671875,-0.548744473862648,0.87560151579082,0.5049062089189886
1665946116254718000,7.426718017578125,-0.5305348634332419,0.4229080169290304,0.7068991460770369
1665946116264799700,7.4367998046875,-0.15747311969101427,-0.1776706890672445,0.7075894664287566
1665946116274880800,7.446880859375,0.5563636436294764,-0.7686796026855707,0.7497584829859435
1665946116284962800,7.456962890625,1.2103262954194098,-0.4346212510764599,0.0466344715334475
1665946116295043600,7.467043701171875,1.4457519119061528,0.31508184846043585,-0.6434054558098316
1665946116305125600,7.477125732421875,0.9713228204458951,0.7985217832416296,-0.5810454457476735
1665946116315206700,7.48720654296875,0.338463345102407,1.3098171086758374,-0.5738062882743775
1665946116325288700,7.497288818359375,0.008856712205149234,1.8072335463613272,-0.8399636545680463
1665946133144337000,24.3163369140625,-0.4139706772357225,-0.09700900637805461,-0.44287353111505506
1665946133154418000,24.32641796875,-0.5433446606457233,0.12013093876838683,-0.6281489960975944
1665946133164498700,24.336498779296875,-0.34986323898434635,-0.14033084623217582,-0.7895756757199763
1665946133174580000,24.346580078125,-0.2889373533785343,-0.2564946349352598,-0.7382792037248611
1665946133184661000,24.356660888671875,-0.16042729332149028,-0.11686521497070788,-0.5815941656716167
1665946133194742000,24.366741943359376,0.0033119010269641873,-0.10273790541887283,-0.42575317722707984
1665946133204823000,24.376822998046876,0.12589198651313782,-0.006315759018063545,-0.1817906185414642
1665946133214903800,24.38690380859375,0.050524903100728984,0.017658406287431715,-0.004776091828010976
1665946133224985900,24.39698583984375,-0.26278759759962556,0.34155835197567935,0.2225761813836172
1665946133235067000,24.40706689453125,-0.15758184076249598,0.6332137321412563,0.5796720385026186
1665946133245148000,24.41714794921875,0.11868483161330222,0.3635995033919811,0.607267243849486
1665946133255229000,24.42722900390625,0.1209077683597803,0.005838204634189605,0.3553376518074423
1665946133265309700,24.437309814453126,0.22771920682787894,-0.19036591998934746,0.09228778654243797
1665946133275391000,24.447390869140627,0.4030997391313314,-0.18136895906329153,-0.13177454174570738
1665946133285472000,24.457471923828123,0.3833551742196083,-0.024686697489023208,-0.1893333620712161
1665946133295553000,24.467552978515624,0.19707038606405258,0.0761041655153036,-0.14297515019588172
1665946133305634000,24.477634033203124,-0.06795417680740357,0.13494389249682426,-0.14455551472250372
1665946133315714800,24.48771484375,-0.3451484854221344,0.06311959625780582,-0.15807024533394723
1665946133325796900,24.497796875,-0.38013270504176616,-0.011044541105628013,-0.13420366858877242
1665946133335878000,24.5078779296875,-0.29137013348340984,-0.010571662896871566,-0.1428988335566595
1665946133345959000,24.517958984375,-0.2428787820369005,-0.07286123807132244,-0.23702804671470074
1665946133356040000,24.5280400390625,-0.23482465491890905,-0.07024258000552654,-0.3379812972065061
1665946133366120700,24.53812060546875,-0.2801934904307127,0.06110124217271804,-0.31169768591485914
1665946133376202000,24.548201904296874,-0.362051689428091,0.06245265678167343,-0.21381299268081783
1665946133386283000,24.558282958984375,-0.4679845914959907,-0.025765724897384643,-0.12225534704383462
1665946133396364000,24.568364013671875,-0.4693330834954977,-0.12346914328038691,-0.06690181821025908
1665946133406445000,24.578445068359375,-0.39197921018004417,-0.2071902135401964,-0.025183102703839538
1665946133416525800,24.58852587890625,-0.3173398565202951,-0.22441958076059818,-0.0512827905296348
1665946133426607900,24.59860791015625,-0.2862146504163742,-0.1813221973121166,-0.08863183958446606
1665946133436689000,24.60868896484375,-0.1290776308119297,-0.0822346310943365,-0.04925053578335792
1665946133446770200,24.618770263671873,0.21626666944324968,-0.517990439158678,0.36042503807432946
1665946133456851200,24.628851318359374,0.025958617120981214,-0.571734304305911,0.3848858543856069
1665946133466932200,24.63893212890625,-0.16375030026435852,-0.1956844846636057,0.12857523424774409
1665946133477013200,24.64901318359375,0.10878010819256305,0.10730419042110442,0.04931238550581038
1665946133487094300,24.65909423828125,0.34310733498334883,0.26035481749475003,-0.008263239824026823
1665946133497175300,24.66917529296875,0.3582143032222986,0.2537345225721597,-0.09346636533513665
1665946133507256300,24.67925634765625,0.29123978510200976,0.04479425049424171,-0.14431187869235873
1665946133517337300,24.68933740234375,0.3372556863456964,-0.06127250708639621,-0.10233644847851246
1665946133527419400,24.69941943359375,0.40354397576749323,0.1097363860040903,0.04011051312480122
1665946133537500200,24.709500244140624,0.28980186125338075,0.23761750050783156,-0.06672120094634593
1665946133547581200,24.719581298828125,-0.022082067948579788,0.2274386363208294,-0.6749830818563699
1665946133557662200,24.729662109375,-0.5005167417883872,0.12216975111961365,-1.846581514148414
1665946133567743200,24.7397431640625,-0.7372562904179096,-0.11854396183788776,-2.2493941069014367
1665946133577824300,24.74982421875,-0.6322410877168179,-0.25816578301787374,-2.041077811940759
1665946133587905300,24.7599052734375,-0.30528584611117837,-0.1949029788970947,-1.5340014193758367
1665946133597986300,24.769986328125,-0.1384662214040756,0.05338730679452419,-0.7314493577048182
1665946133608068400,24.780068359375,-0.10411913064420222,0.3640875791698694,-0.11268467788305132
1665946133618149400,24.7901494140625,-0.011018237620592116,0.5743243207991123,0.20906674800179897
1665946133628230400,24.80023046875,-0.057364978253841396,0.5493535456717014,0.260069570812583
1665946133638311200,24.810311279296876,-0.19069325224757194,0.34463527520298953,0.284583980474621
1665946133648392200,24.82039208984375,-0.2460416299819946,0.1645785677820444,0.1762926787123084
1665946133658473200,24.83047314453125,-0.25071020631492136,0.2500216395288706,-0.007867993428744375
1665946133668554200,24.84055419921875,-0.25461598158180715,0.17290215949118137,-0.3153097389321774
1665946133678635300,24.85063525390625,-0.05518821873664856,-0.004453472277522087,-0.45483884032741184
1665946133688716300,24.86071630859375,0.09557868131399154,-0.1210731880545616,-0.4369338388677686
1665946133698798000,24.870798095703126,0.1614075365304947,-0.05959376021921634,-0.27985096060335635
1665946133708879400,24.88087939453125,-0.03164718415141105,0.1031961705803871,-0.06890256357342005
1665946133718960400,24.89096044921875,-0.3056196081101894,0.10123802224993705,0.054301352899521586
1665946133729041400,24.90104150390625,-0.3793412624031305,0.0790624307990074,0.0770353271518834
1665946133739122200,24.9111220703125,-0.32871582153737544,0.0415051458209753,-0.08215593070178293
1665946133749203200,24.921203125,-0.17970073359012603,0.029626491978764533,-0.18582316199317572
1665946133759284200,24.9312841796875,-0.08898352083265781,0.05454290657043457,-0.22367760328687727
1665946133769365200,24.941365234375,-0.03264496301710605,0.1767091505587101,-0.24491518323533235
1665946133779447300,24.951447265625,-0.02554068396985531,0.2616583013087511,-0.2246810081757605
1665946133789528300,24.9615283203125,-0.0715431412100792,0.2552227153033018,-0.18736228119395673
1665946133799609000,24.971609130859374,-0.10505436566770077,0.16577274600267408,-0.15601985214278102
1665946133809690000,24.981690185546874,-0.15440788690149784,0.07038052717149257,-0.1233366760071367
1665946133819771400,24.991771484375,-0.2653279297322035,-0.02249181779325008,-0.11870631279274821
1665946133829852400,25.001852294921875,-0.31402444836199284,-0.03600128770768642,-0.19457944603115318
1665946133839933200,25.01193310546875,-0.34931086579859255,0.0706359632372856,-0.3039507981151342
1665946133850015200,25.02201513671875,-0.38413726450800895,0.19750117869675157,-0.2543507547743618
1665946133860096300,25.03209619140625,-0.39659284145534035,0.247363233974576,-0.09350435925796627
1665946133870177300,25.04217724609375,-0.3283347132652998,0.29076982950270175,0.04368000564202666
1665946133880258300,25.05225830078125,-0.27596505908071994,0.28448154301345346,0.05962094048708677
1665946133890339300,25.06233935546875,-0.2000233906507492,0.2331716270148754,-0.0008194996893405913
1665946133900420000,25.072420166015625,-0.15439795002937315,0.18972177686691283,-0.10073431051149964
1665946133910501000,25.082501220703126,-0.117034726318717,0.18102350662648678,-0.1722448646262288
1665946133920582400,25.09258251953125,-0.1344318513214588,0.15444178917109966,-0.19446897139400243
1665946133930664200,25.102664306640627,-0.1973790136218071,0.13150281213223933,-0.14589191442541777
1665946133940745500,25.112745361328123,-0.29519641377329825,0.17662030323147773,-0.04042020012848079
1665946133950826200,25.122826171875,-0.4327268156319856,0.20869535740613937,-0.03658354457505047
1665946133960907300,25.1329072265625,-0.40287469820380206,0.1975309893131256,-0.04448847248069942
1665946133970988300,25.14298828125,-0.2450800914734602,0.1964116298943758,-0.003518675645440817
1665946133981069300,25.1530693359375,-0.08038228122591971,0.21280688437819478,-0.0584235473960638
1665946133991150000,25.163150146484377,-0.051399932369589806,0.13353577926456928,-0.1994197987344116
1665946134001232100,25.173232177734373,-0.10936930625736713,0.13350947577953337,-0.2270418190229684
1665946134011313200,25.183313232421874,-0.14326982229351998,0.17265315316617488,-0.18972053475789724
1665946134021394200,25.193394287109374,-0.2034486889243126,0.11895838785767554,-0.17792597900256513
1665946134031475200,25.20347509765625,-0.2258212642520666,0.05680033010840416,-0.08671265329122543
1665946134041556500,25.213556396484375,-0.3290343859672546,0.04243453562557697,0.011935863922163843
1665946134051637200,25.22363720703125,-0.43305414789021013,0.13007657872140407,0.017440160426869987
1665946134061719300,25.23371923828125,-0.3984299937546253,0.17230653168559074,-0.09744418292492628
1665946134071800300,25.24380029296875,-0.30385669009089467,0.16064765807390213,-0.18840660261511802
1665946134081881300,25.25388134765625,-0.14226093751192093,0.22990648773908615,-0.20125636651180684
1665946134091962400,25.26396240234375,-0.034597266128659244,0.23285890780389307,-0.208202751583606
1665946134102043100,25.274043212890625,-0.03794365394711494,0.1679629495233297,-0.1264211980190128
1665946134112124200,25.284124267578125,-0.08463467797338962,0.07020575512647628,0.004296308954432606
1665946134122205200,25.294205078125,-0.12125438984036445,0.07123042199909686,0.07264547642879188
1665946134132287200,25.304287353515626,-0.1648188062787056,0.1800672288149595,0.0057466538932174445
1665946134142368300,25.3143681640625,-0.18636077600121498,0.2367272736698389,-0.06272972015738487
1665946134152449300,25.32444921875,-0.23757775301933287,0.1777495995223522,-0.07147014903910458
1665946134162530300,25.3345302734375,-0.1812573153823614,0.08670388546288013,-0.0714095779582858
1665946134172611300,25.344611328125,0.012959434816241264,0.06778057380616664,-0.08527670220397413
1665946134182692400,25.3546923828125,0.03415945923328399,0.10281389326453208,-0.12487002305425703
1665946134192774400,25.3647744140625,-0.11030395675897597,0.17301555673778057,-0.15323942764401435
1665946134202855400,25.37485546875,-0.14569792622327804,0.20420739833712576,-0.16136289367116988
1665946134212936200,25.384936279296873,-0.07959551476240158,0.1727782408505678,-0.18393749437704682
1665946134223017200,25.395017333984374,-0.06451134287714957,0.1261275488346815,-0.16283070120140908
1665946134233098200,25.40509814453125,-0.08295593110620975,0.11676526172757148,-0.09721571706444956
1665946134243179300,25.41517919921875,-0.056714989912509915,0.10135960280299186,-0.044880184345180166
1665946134253261300,25.42526123046875,-0.06991700131297111,0.0894283419907093,-0.03614581074491143
1665946134263342000,25.435342041015623,-0.14317162261605262,0.09967442619502544,-0.10370675958418286
1665946134273423000,25.445423095703124,-0.2199263609945774,0.11617021844387054,-0.16067257331945
1665946134283504000,25.455504150390624,-0.26607202609777447,0.0952975262850523,-0.14374445406794548
1665946134293585400,25.46558544921875,-0.1426584123969078,0.0983691888153553,-0.17330730622597038
1665946134303667200,25.475667236328125,0.006273673442006111,0.10661971528828143,-0.15574096213616428
1665946134313748500,25.48574853515625,0.07884849578738212,0.05794190135896206,-0.06282185542024672
1665946134323829200,25.495829345703125,0.4077881892085075,0.1588672043979168,-0.14789061396196485
1665946134333910300,25.50591015625,0.40426995195448395,0.5065156899422407,-0.10319544906117953
1665946134343991300,25.5159912109375,-0.5999573592275381,0.2902314848423004,0.1588362978029996
1665946134354072300,25.526072265625,-0.4793272387653589,-0.06322831732928752,0.12444872890226542
1665946134364154400,25.536154296875,-0.12713058839738367,-0.19259587099850176,-0.05408252251707017
1665946134374235100,25.546235107421875,-0.2132511210143566,-0.07772913636863231,-0.0784204065684229
1665946134384316200,25.556316162109376,-0.20199965915977955,-0.05841127243638038,-0.119097001743922
1665946134394397200,25.566397216796876,-0.1309112759798765,0.041266660889983174,-0.1561561188083142
1665946134404478200,25.576478271484376,-0.1627057596474886,0.16463409736156462,-0.1958790573876351
1665946134414560300,25.586560302734377,-0.0718956079095602,0.20693711556196212,-0.15704488434158265
