time,seconds_elapsed,z,y,x
1665946108839886800,0.011886962890625,-0.2516937255859375,-0.92828369140625,-0.26605224609375
1665946108849967900,0.0219677734375,-0.2514495849609375,-0.92608642578125,-0.2654266357421875
1665946108860049000,0.032048828125,-0.2500762939453125,-0.9256744384765625,-0.266510009765625
1665946108870130000,0.0421298828125,-0.2511444091796875,-0.9264984130859375,-0.2673187255859375
1665946108880211700,0.052211669921875,-0.247772216796875,-0.9264373779296875,-0.2666168212890625
1665946108890293000,0.06229296875,-0.250396728515625,-0.92730712890625,-0.2642669677734375
1665946108900374000,0.0723740234375,-0.2570953369140625,-0.9299774169921875,-0.264617919921875
1665946108910455000,0.082455078125,-0.259246826171875,-0.935394287109375,-0.2610015869140625
1665946108920537000,0.092537109375,-0.2536163330078125,-0.939178466796875,-0.257965087890625
1665946108930617900,0.102617919921875,-0.25531005859375,-0.9371185302734375,-0.2584991455078125
1665946108940699000,0.112698974609375,-0.2559661865234375,-0.9326934814453125,-0.2621002197265625
1665946108950780000,0.12277978515625,-0.2504119873046875,-0.9313812255859375,-0.266143798828125
1665946108960862000,0.132862060546875,-0.2490234375,-0.9282073974609375,-0.26416015625
1665946108970943000,0.14294287109375,-0.2553558349609375,-0.9258270263671875,-0.2579345703125
1665946108981024000,0.15302392578125,-0.25787353515625,-0.927886962890625,-0.2570648193359375
1665946108991104800,0.163104736328125,-0.2555389404296875,-0.930267333984375,-0.261260986328125
1665946109001186800,0.173186767578125,-0.2529449462890625,-0.93438720703125,-0.258880615234375
1665946109011267800,0.183267822265625,-0.2562408447265625,-0.939117431640625,-0.259002685546875
1665946109021348900,0.193348876953125,-0.2546539306640625,-0.9363555908203125,-0.261077880859375
1665946109031430000,0.203429931640625,-0.2539520263671875,-0.9316864013671875,-0.257598876953125
1665946109041512000,0.213511962890625,-0.2577056884765625,-0.9307098388671875,-0.2515411376953125
1665946109051592700,0.2235927734375,-0.2548980712890625,-0.931365966796875,-0.2560272216796875
1665946109061674000,0.233674072265625,-0.2577667236328125,-0.930908203125,-0.255706787109375
1665946109071755000,0.243755126953125,-0.261993408203125,-0.93304443359375,-0.258941650390625
1665946109081837000,0.253837158203125,-0.259613037109375,-0.935211181640625,-0.2578277587890625
1665946109091918000,0.26391796875,-0.2522430419921875,-0.933135986328125,-0.26055908203125
1665946109101998800,0.273998779296875,-0.246978759765625,-0.927520751953125,-0.26312255859375
1665946109112080000,0.284079833984375,-0.2445220947265625,-0.9178314208984375,-0.2697601318359375
1665946109122162000,0.294161865234375,-0.2486419677734375,-0.912078857421875,-0.2764434814453125
1665946109132243000,0.304242919921875,-0.232025146484375,-0.9174652099609375,-0.2413330078125
1665946109142324000,0.314323974609375,-0.2410125732421875,-0.9138336181640625,-0.245025634765625
1665946109152405000,0.324405029296875,-0.2681884765625,-0.9503936767578125,-0.2526397705078125
1665946109162487000,0.334487060546875,-0.24102783203125,-0.9804229736328125,-0.242645263671875
1665946109172567800,0.34456787109375,-0.236602783203125,-0.9530792236328125,-0.2541961669921875
1665946109182648800,0.35464892578125,-0.2467041015625,-0.9075775146484375,-0.268218994140625
1665946109192729900,0.364729736328125,-0.254486083984375,-0.8998870849609375,-0.2815399169921875
1665946109202812000,0.37481201171875,-0.2762451171875,-0.899932861328125,-0.2901611328125
1665946109212893000,0.384892822265625,-0.2607421875,-0.9282989501953125,-0.2631378173828125
1665946109222973700,0.3949736328125,-0.2357635498046875,-0.954254150390625,-0.2333526611328125
1665946109233055000,0.405054931640625,-0.2391204833984375,-0.9454193115234375,-0.2296142578125
1665946109243136800,0.41513671875,-0.246429443359375,-0.92266845703125,-0.25372314453125
1665946109253218000,0.425218017578125,-0.2440185546875,-0.91259765625,-0.27215576171875
1665946109263299000,0.435299072265625,-0.2078094482421875,-0.9727935791015625,-0.2514495849609375
1665946109273380000,0.445380126953125,-0.193115234375,-0.9319610595703125,-0.257110595703125
1665946109283462000,0.4554619140625,-0.236419677734375,-0.8458099365234375,-0.275177001953125
1665946109293543000,0.46554296875,-0.2611083984375,-0.86962890625,-0.2517852783203125
1665946109303624000,0.4756240234375,-0.2693939208984375,-0.8955230712890625,-0.2363739013671875
1665946109313705000,0.485705078125,-0.2823638916015625,-0.9202728271484375,-0.2372283935546875
1665946109323787000,0.495787109375,-0.2638702392578125,-0.9218597412109375,-0.2544708251953125
1665946109333868000,0.505867919921875,-0.2263641357421875,-0.93585205078125,-0.2652587890625
1665946109343948800,0.51594873046875,-0.202911376953125,-0.9441375732421875,-0.2521820068359375
1665946109354029800,0.52602978515625,-0.19696044921875,-0.91802978515625,-0.2372589111328125
1665946109364112000,0.53611181640625,-0.195159912109375,-0.8876495361328125,-0.2025146484375
1665946109374193000,0.54619287109375,-0.2056732177734375,-0.8635711669921875,-0.180145263671875
1665946109384274000,0.55627392578125,-0.2175445556640625,-0.84375,-0.1925201416015625
1665946109394355000,0.56635498046875,-0.2216033935546875,-0.8387908935546875,-0.2077789306640625
1665946109404436700,0.576436767578125,-0.2056732177734375,-0.8088531494140625,-0.1985015869140625
1665946109414517800,0.586517822265625,-0.1716461181640625,-0.7473602294921875,-0.1949615478515625
1665946109424599000,0.59659912109375,-0.181732177734375,-0.707763671875,-0.1880950927734375
1665946109434680000,0.60668017578125,-0.2434539794921875,-0.739990234375,-0.1673431396484375
1665946109444762000,0.61676220703125,-0.2686004638671875,-0.85302734375,-0.147003173828125
1665946109454843100,0.626843017578125,-0.18939208984375,-0.9841156005859375,-0.1815185546875
1665946109464924000,0.636923828125,-0.1298828125,-1.09442138671875,-0.2057037353515625
1665946109475005000,0.6470048828125,-0.1297454833984375,-1.2107086181640625,-0.21185302734375
1665946109485087000,0.6570869140625,-0.142791748046875,-1.250244140625,-0.2429351806640625
1665946109495168000,0.66716796875,-0.17803955078125,-1.2595367431640625,-0.25274658203125
1665946109505249000,0.6772490234375,-0.1979827880859375,-1.2374114990234375,-0.2671356201171875
1665946109515329800,0.687329833984375,-0.1888427734375,-1.1996002197265625,-0.2906341552734375
1665946109525411800,0.697411865234375,-0.1577301025390625,-1.1604766845703125,-0.298248291015625
1665946109535492900,0.707492919921875,-0.1735992431640625,-0.9326629638671875,-0.252349853515625
1665946109545574000,0.717573974609375,-0.170989990234375,-0.902862548828125,-0.198760986328125
1665946109555655000,0.727655029296875,-0.164154052734375,-0.9496307373046875,-0.2315216064453125
1665946109565737000,0.737737060546875,-0.149017333984375,-0.9563140869140625,-0.2347564697265625
1665946109575817700,0.747817626953125,-0.147308349609375,-0.9511871337890625,-0.2248687744140625
1665946109585898800,0.757898681640625,-0.1684112548828125,-0.962921142578125,-0.2291717529296875
1665946109595980800,0.767980712890625,-0.197052001953125,-0.969482421875,-0.232574462890625
1665946109606061800,0.778061767578125,-0.1925048828125,-0.9732818603515625,-0.2310333251953125
1665946109616143000,0.78814306640625,-0.15802001953125,-0.963897705078125,-0.2278289794921875
1665946109626224000,0.79822412109375,-0.1513519287109375,-0.9567413330078125,-0.226531982421875
1665946109636306000,0.808305908203125,-0.1683502197265625,-0.953704833984375,-0.234283447265625
1665946109646387000,0.818386962890625,-0.19012451171875,-0.9481964111328125,-0.2375946044921875
1665946109656468000,0.828468017578125,-0.20050048828125,-0.94964599609375,-0.23468017578125
1665946109666549000,0.838549072265625,-0.1959381103515625,-0.9568634033203125,-0.2312774658203125
1665946109676631000,0.848631103515625,-0.177886962890625,-0.9575653076171875,-0.22674560546875
1665946109686712000,0.858712158203125,-0.168243408203125,-0.9549102783203125,-0.2270355224609375
1665946109696792800,0.868792724609375,-0.177154541015625,-0.9529876708984375,-0.23236083984375
1665946109706873900,0.878873779296875,-0.182220458984375,-0.955596923828125,-0.23565673828125
1665946109716956000,0.888955810546875,-0.1817169189453125,-0.956512451171875,-0.2348785400390625
1665946109727037000,0.899036865234375,-0.1756439208984375,-0.9573211669921875,-0.230712890625
1665946109737118000,0.909117919921875,-0.175628662109375,-0.9644927978515625,-0.2263946533203125
1665946109747198700,0.91919873046875,-0.1772918701171875,-0.970458984375,-0.2220916748046875
1665946109757280800,0.92928076171875,-0.1696624755859375,-0.9612274169921875,-0.2290802001953125
1665946109767361800,0.93936181640625,-0.162078857421875,-0.951263427734375,-0.22894287109375
1665946109777442800,0.94944287109375,-0.17059326171875,-0.9553985595703125,-0.2283477783203125
1665946109787524000,0.959524169921875,-0.1924591064453125,-0.9447021484375,-0.23687744140625
1665946109797606000,0.96960595703125,-0.195098876953125,-0.9552764892578125,-0.2395782470703125
1665946109807687200,0.979687255859375,-0.1701507568359375,-0.971435546875,-0.233734130859375
1665946109817768000,0.989767822265625,-0.160888671875,-0.9762420654296875,-0.23486328125
1665946109827850000,0.99985009765625,-0.1621551513671875,-0.9453887939453125,-0.2314605712890625
1665946109837931000,1.009930908203125,-0.1469573974609375,-0.936614990234375,-0.230316162109375
1665946109848012000,1.020011962890625,-0.14239501953125,-0.938629150390625,-0.2368927001953125
1665946109858093000,1.030093017578125,-0.147857666015625,-0.94415283203125,-0.2305145263671875
1665946109868175000,1.040175048828125,-0.1484375,-0.9401397705078125,-0.220184326171875
1665946109878255900,1.050255859375,-0.1327056884765625,-0.9012603759765625,-0.256134033203125
1665946109888337000,1.0603369140625,-0.1571044921875,-0.903228759765625,-0.2787322998046875
1665946109898418000,1.07041796875,-0.21942138671875,-0.9672393798828125,-0.199432373046875
1665946109908500000,1.0805,-0.2070770263671875,-0.978485107421875,-0.185455322265625
1665946109918581000,1.0905810546875,-0.169708251953125,-0.9654693603515625,-0.1911468505859375
1665946109928661800,1.100661865234375,-0.2088775634765625,-0.8964691162109375,-0.18414306640625
1665946109938742800,1.11074267578125,-0.28173828125,-0.9388427734375,-0.1473236083984375
1665946109948824800,1.120824951171875,-0.3277587890625,-1.0477447509765625,-0.119384765625
1665946109958905900,1.13090576171875,-0.275604248046875,-1.0809478759765625,-0.1872406005859375
1665946109968987000,1.14098681640625,-0.0887908935546875,-1.0778350830078125,-0.2587890625
1665946109979068200,1.151068115234375,-0.1419677734375,-1.080047607421875,-0.0765533447265625
1665946109989149700,1.161149658203125,-0.1765289306640625,-0.943145751953125,-0.0369720458984375
1665946109999231000,1.17123095703125,-0.132232666015625,-0.7813568115234375,-0.2257080078125
1665946110009312000,1.18131201171875,-0.128997802734375,-0.8884735107421875,-0.167572021484375
1665946110019394000,1.19139404296875,-0.026123046875,-0.9479217529296875,-0.097808837890625
1665946110029475000,1.20147509765625,-0.077392578125,-0.9847412109375,-0.0720977783203125
1665946110039556000,1.21155615234375,-0.2127532958984375,-0.9929656982421875,-0.0694580078125
1665946110049636900,1.221636962890625,-0.26318359375,-0.9959259033203125,-0.0581817626953125
1665946110059719000,1.231718994140625,-0.1972198486328125,-0.9583587646484375,-0.052642822265625
1665946110069800000,1.241800048828125,-0.1338958740234375,-0.91156005859375,-0.052947998046875
1665946110079881000,1.251880859375,-0.1046905517578125,-0.9401092529296875,-0.1995086669921875
1665946110089962000,1.2619619140625,-0.063018798828125,-0.992919921875,-0.632598876953125
1665946110100044000,1.2720439453125,0.01690673828125,-0.9692535400390625,-0.6917877197265625
1665946110110124800,1.282124755859375,0.075592041015625,-0.9878997802734375,-0.5911865234375
1665946110120205800,1.292205810546875,0.1376495361328125,-0.99285888671875,-0.3829803466796875
1665946110130287900,1.302287841796875,0.151947021484375,-1.011810302734375,-0.229461669921875
1665946110140369000,1.312368896484375,0.14337158203125,-0.9643707275390625,-0.2241363525390625
1665946110150450000,1.322449951171875,0.15460205078125,-0.8908843994140625,-0.2394866943359375
1665946110160531000,1.332531005859375,0.1609954833984375,-0.8924102783203125,-0.265533447265625
1665946110170612700,1.34261279296875,0.181427001953125,-0.9323883056640625,-0.326568603515625
1665946110180693800,1.35269384765625,0.2361602783203125,-0.9507598876953125,-0.4012603759765625
1665946110190775000,1.362775146484375,0.28887939453125,-0.924652099609375,-0.4215240478515625
1665946110200856000,1.37285595703125,0.2826385498046875,-0.901458740234375,-0.3301239013671875
1665946110210937900,1.382937744140625,0.263641357421875,-0.926422119140625,-0.207763671875
1665946110221019100,1.39301904296875,0.2659454345703125,-0.93768310546875,-0.1261138916015625
1665946110231100000,1.403099853515625,0.2451934814453125,-0.9685516357421875,-0.1305084228515625
1665946110241181000,1.413180908203125,0.2315216064453125,-0.9812164306640625,-0.2264556884765625
1665946110251263000,1.423262939453125,0.269989013671875,-0.9403076171875,-0.3049163818359375
1665946110261344000,1.433343994140625,0.2551422119140625,-0.9305267333984375,-0.3496246337890625
1665946110271425000,1.443425048828125,0.20831298828125,-0.91302490234375,-0.376617431640625
1665946110281507000,1.453507080078125,0.17828369140625,-0.9228515625,-0.339447021484375
1665946110291587800,1.463587890625,0.1349334716796875,-0.9610443115234375,-0.243865966796875
1665946110301668900,1.4736689453125,0.0955047607421875,-0.9878997802734375,-0.157745361328125
1665946110311750000,1.48375,0.0855560302734375,-1.0119781494140625,-0.114166259765625
1665946110321832000,1.49383203125,0.059173583984375,-0.99774169921875,-0.118072509765625
1665946110331913000,1.503912841796875,0.0077667236328125,-0.946136474609375,-0.2063751220703125
1665946110341993700,1.51399365234375,0.0225067138671875,-0.8881072998046875,-0.3231658935546875
1665946110352074800,1.52407470703125,0.1302490234375,-0.8409271240234375,-0.435455322265625
1665946110362156800,1.53415673828125,0.262451171875,-0.7949676513671875,-0.5485992431640625
1665946110372237800,1.54423779296875,0.14202880859375,-0.9062042236328125,-0.52899169921875
1665946110382318800,1.55431884765625,-0.013336181640625,-0.9951629638671875,-0.4469757080078125
1665946110392401000,1.56440087890625,0.10955810546875,-0.98553466796875,-0.3662567138671875
1665946110402482000,1.57448193359375,0.2530059814453125,-0.9847259521484375,-0.2528228759765625
1665946110412563000,1.58456298828125,0.4047393798828125,-0.9752960205078125,-0.225372314453125
1665946110422643500,1.5946435546875,0.4055633544921875,-0.9121246337890625,-0.3309326171875
1665946110432725500,1.6047255859375,0.289398193359375,-0.912017822265625,-0.360382080078125
1665946110442806500,1.614806640625,0.2371826171875,-0.9343719482421875,-0.3180389404296875
1665946110452887600,1.624887451171875,0.246368408203125,-0.9521484375,-0.3195343017578125
1665946110462969600,1.634969482421875,0.2587127685546875,-0.9426422119140625,-0.3127593994140625
1665946110473050600,1.645050537109375,0.2263946533203125,-0.9431304931640625,-0.29522705078125
1665946110483131400,1.65513134765625,0.1802825927734375,-0.918365478515625,-0.3101959228515625
1665946110493212400,1.66521240234375,0.1668243408203125,-0.9012298583984375,-0.36187744140625
1665946110503294500,1.67529443359375,0.18682861328125,-0.90106201171875,-0.39825439453125
1665946110513375500,1.68537548828125,0.223358154296875,-0.9078826904296875,-0.37030029296875
1665946110523456500,1.69545654296875,0.2032318115234375,-0.8641204833984375,-0.3880462646484375
1665946110533538600,1.70553857421875,0.1982421875,-0.8058319091796875,-0.416748046875
1665946110543619300,1.715619384765625,0.18634033203125,-0.78564453125,-0.4269256591796875
1665946110553700400,1.725700439453125,0.105438232421875,-0.8178558349609375,-0.4084930419921875
1665946110563781400,1.735781494140625,0.053985595703125,-0.8437957763671875,-0.3885345458984375
1665946110573863400,1.745863525390625,0.0323638916015625,-0.9019775390625,-0.364654541015625
1665946110583944400,1.7559443359375,-0.0220489501953125,-0.9203033447265625,-0.3931427001953125
1665946110594025700,1.766025634765625,-0.0883331298828125,-0.8963470458984375,-0.4796295166015625
1665946110604106500,1.7761064453125,-0.1487884521484375,-0.8839874267578125,-0.5363922119140625
1665946110614188500,1.7861884765625,-0.1793365478515625,-0.899871826171875,-0.474700927734375
1665946110624269600,1.79626953125,-0.1159515380859375,-0.8916015625,-0.394256591796875
1665946110634350600,1.8063505859375,-0.02728271484375,-0.8518218994140625,-0.4071197509765625
1665946110644432600,1.8164326171875,-0.0311431884765625,-0.858245849609375,-0.464019775390625
1665946110654513700,1.826513671875,-0.0750274658203125,-0.8791961669921875,-0.501708984375
1665946110664594400,1.836594482421875,-0.109466552734375,-0.8923797607421875,-0.52679443359375
1665946110674675500,1.846675537109375,-0.1567535400390625,-0.8961181640625,-0.5067138671875
1665946110684757500,1.856757568359375,-0.1628265380859375,-0.8926239013671875,-0.468963623046875
1665946110694838500,1.866838623046875,-0.144744873046875,-0.858673095703125,-0.4631805419921875
1665946110704919600,1.87691943359375,-0.0892333984375,-0.8558807373046875,-0.5001068115234375
1665946110715001600,1.887001708984375,-0.066864013671875,-0.8735504150390625,-0.5266265869140625
1665946110725082400,1.897082275390625,-0.07867431640625,-0.8935699462890625,-0.541229248046875
1665946110735163400,1.907163330078125,-0.0697784423828125,-0.879058837890625,-0.48614501953125
1665946110745244400,1.917244384765625,-0.03253173828125,-0.886962890625,-0.433502197265625
1665946110755326500,1.927326416015625,0.0080108642578125,-0.878204345703125,-0.4895477294921875
1665946110765407500,1.937407470703125,-0.014801025390625,-0.8182525634765625,-0.539520263671875
1665946110775488500,1.947488525390625,0.0019683837890625,-0.82470703125,-0.5947723388671875
1665946110785570600,1.957570556640625,0.0037841796875,-0.8157501220703125,-0.583099365234375
1665946110795651300,1.9676513671875,-0.0299530029296875,-0.8471832275390625,-0.5265350341796875
1665946110805732600,1.977732666015625,-0.091064453125,-0.840423583984375,-0.49761962890625
1665946110815813600,1.987813720703125,-0.120880126953125,-0.8307647705078125,-0.53021240234375
1665946110825895400,1.9978955078125,-0.08453369140625,-0.85931396484375,-0.5549163818359375
1665946110835976700,2.007976806640625,-0.05218505859375,-0.8733062744140625,-0.5104217529296875
1665946110846057500,2.018057373046875,-0.0394744873046875,-0.86102294921875,-0.5002288818359375
1665946110856138500,2.028138427734375,-0.0494537353515625,-0.8401947021484375,-0.5169830322265625
1665946110866220500,2.038220458984375,-0.0977020263671875,-0.8395843505859375,-0.531982421875
1665946110876301600,2.048301513671875,-0.13909912109375,-0.8462371826171875,-0.5428619384765625
1665946110886382600,2.058382568359375,-0.13653564453125,-0.8466796875,-0.550933837890625
1665946110896464600,2.068464599609375,-0.1442108154296875,-0.84246826171875,-0.53271484375
1665946110906545400,2.07854541015625,-0.1187744140625,-0.8531036376953125,-0.5175323486328125
1665946110916626400,2.08862646484375,-0.1011810302734375,-0.858551025390625,-0.4911346435546875
1665946110926707500,2.09870751953125,-0.073272705078125,-0.858428955078125,-0.5054473876953125
1665946110936789500,2.10878955078125,-0.0465240478515625,-0.8524169921875,-0.5058746337890625
1665946110946870500,2.11887060546875,-0.0892791748046875,-0.85296630859375,-0.493408203125
1665946110956951600,2.12895166015625,-0.073333740234375,-0.8656463623046875,-0.5172882080078125
1665946110967033600,2.13903369140625,-0.0267333984375,-0.8191375732421875,-0.5351715087890625
1665946110977114400,2.1491142578125,-0.101043701171875,-0.855133056640625,-0.5322265625
1665946110987195400,2.1591953125,-0.11895751953125,-0.8500213623046875,-0.5377655029296875
1665946110997276700,2.169276611328125,-0.056304931640625,-0.839324951171875,-0.5359039306640625
1665946111007358500,2.1793583984375,-0.0975341796875,-0.8635406494140625,-0.49298095703125
1665946111017439500,2.189439453125,-0.132415771484375,-0.8546905517578125,-0.4881439208984375
1665946111027520500,2.1995205078125,-0.078826904296875,-0.8563232421875,-0.515716552734375
1665946111037602300,2.209602294921875,0.0088958740234375,-0.813385009765625,-0.5246429443359375
1665946111047683600,2.21968359375,-0.08074951171875,-0.84686279296875,-0.538238525390625
1665946111057764600,2.2297646484375,-0.1240386962890625,-0.83831787109375,-0.549896240234375
1665946111067845600,2.239845703125,-0.0697021484375,-0.8521728515625,-0.5361785888671875
1665946111077927700,2.249927734375,-0.056915283203125,-0.8841094970703125,-0.493316650390625
1665946111088008400,2.260008544921875,-0.0691680908203125,-0.8562774658203125,-0.487030029296875
1665946111098089500,2.27008935546875,-0.1116790771484375,-0.864044189453125,-0.54937744140625
1665946111108171500,2.280171630859375,-0.06463623046875,-0.79913330078125,-0.547271728515625
1665946111118252500,2.29025244140625,-0.031890869140625,-0.840362548828125,-0.521026611328125
1665946111128333600,2.30033349609375,-0.058929443359375,-0.8470611572265625,-0.5361480712890625
1665946111138414600,2.31041455078125,-0.07476806640625,-0.8507232666015625,-0.543365478515625
1665946111148496400,2.320496337890625,-0.0650634765625,-0.8488311767578125,-0.5331573486328125
1665946111158577400,2.330577392578125,-0.0643310546875,-0.8475189208984375,-0.5259552001953125
1665946111168658400,2.340658447265625,-0.0767059326171875,-0.8409576416015625,-0.5101470947265625
1665946111178740500,2.350740478515625,-0.08941650390625,-0.8372650146484375,-0.52276611328125
1665946111188821500,2.360821533203125,-0.0909881591796875,-0.842376708984375,-0.52117919921875
1665946111198902500,2.370902587890625,-0.0850372314453125,-0.8498382568359375,-0.5176544189453125
1665946111208983300,2.3809833984375,-0.0779571533203125,-0.8351287841796875,-0.5284423828125
1665946111219065300,2.3910654296875,-0.0818328857421875,-0.832244873046875,-0.5594940185546875
1665946111229146400,2.401146484375,-0.0723724365234375,-0.836700439453125,-0.562286376953125
1665946111239227600,2.4112275390625,-0.032379150390625,-0.835845947265625,-0.549530029296875
1665946111249309400,2.421309326171875,-0.0522308349609375,-0.8309478759765625,-0.5443572998046875
1665946111259390700,2.431390625,-0.0907135009765625,-0.827484130859375,-0.5450897216796875
1665946111269471500,2.441471435546875,-0.1031494140625,-0.7932281494140625,-0.5837249755859375
1665946111279552500,2.451552490234375,-0.1215057373046875,-0.7873077392578125,-0.6036376953125
1665946111289634600,2.461634521484375,-0.1012725830078125,-0.8704681396484375,-0.5494537353515625
1665946111299715600,2.471715576171875,-0.0348052978515625,-0.9945068359375,-0.43133544921875
1665946111309796600,2.481796630859375,0.0157318115234375,-0.9371337890625,-0.410797119140625
1665946111319878700,2.491878662109375,0.00665283203125,-0.8434295654296875,-0.4788055419921875
1665946111329959400,2.50195947265625,-0.0109100341796875,-0.826690673828125,-0.4976348876953125
1665946111340040400,2.51204052734375,-0.0187835693359375,-0.831298828125,-0.5110015869140625
1665946111350122500,2.52212255859375,-0.0384979248046875,-0.8435516357421875,-0.5206756591796875
1665946111360203500,2.53220361328125,-0.055267333984375,-0.84735107421875,-0.5197296142578125
1665946111370284500,2.542284423828125,-0.07489013671875,-0.8515472412109375,-0.5214080810546875
1665946111380365600,2.552365478515625,-0.09869384765625,-0.8492431640625,-0.5224151611328125
1665946111390447600,2.562447509765625,-0.104034423828125,-0.8533782958984375,-0.52081298828125
1665946111400528400,2.5725283203125,-0.094329833984375,-0.86431884765625,-0.51171875
1665946111410609400,2.582609375,-0.06744384765625,-0.8651580810546875,-0.5073699951171875
1665946111420691500,2.59269140625,-0.0333709716796875,-0.855224609375,-0.5152587890625
1665946111430772000,2.60277197265625,-0.03076171875,-0.8542938232421875,-0.5180511474609375
1665946111440853000,2.61285302734375,-0.044769287109375,-0.852264404296875,-0.5075225830078125
1665946111450934300,2.622934326171875,-0.058319091796875,-0.848236083984375,-0.5068206787109375
1665946111461016000,2.63301611328125,-0.0533294677734375,-0.8460235595703125,-0.5092315673828125
1665946111471097300,2.643097412109375,-0.055572509765625,-0.844940185546875,-0.5180206298828125
1665946111481178000,2.65317822265625,-0.05352783203125,-0.848663330078125,-0.5136871337890625
1665946111491260200,2.66326025390625,-0.0562744140625,-0.860595703125,-0.503509521484375
1665946111501341200,2.673341064453125,-0.065216064453125,-0.8609771728515625,-0.506072998046875
1665946111511422200,2.683422119140625,-0.07562255859375,-0.858184814453125,-0.519287109375
1665946111521504300,2.693504150390625,-0.07952880859375,-0.8525543212890625,-0.523223876953125
1665946111531585300,2.703585205078125,-0.07757568359375,-0.851654052734375,-0.5207977294921875
1665946111541666000,2.713666015625,-0.0742340087890625,-0.85107421875,-0.5267181396484375
1665946111551747000,2.7237470703125,-0.0696563720703125,-0.85198974609375,-0.535064697265625
1665946111561829000,2.7338291015625,-0.0728912353515625,-0.8482513427734375,-0.545013427734375
1665946111571910100,2.74391015625,-0.0802764892578125,-0.840118408203125,-0.5633087158203125
1665946111581991200,2.7539912109375,-0.0768890380859375,-0.8385009765625,-0.589141845703125
1665946111592073200,2.7640732421875,-0.0673675537109375,-0.8365020751953125,-0.5997161865234375
1665946111602154000,2.774154052734375,-0.0660552978515625,-0.845489501953125,-0.5931396484375
1665946111612235000,2.784235107421875,-0.061676025390625,-0.857177734375,-0.608154296875
1665946111622316000,2.79431591796875,-0.0485076904296875,-0.8575439453125,-0.5883636474609375
1665946111632398000,2.804398193359375,-0.038177490234375,-0.849456787109375,-0.55413818359375
1665946111642479000,2.81447900390625,-0.2319793701171875,-0.868927001953125,-0.5228424072265625
1665946111652560100,2.82456005859375,-0.240478515625,-0.8100738525390625,-0.5411376953125
1665946111662642200,2.83464208984375,-0.110687255859375,-0.7852325439453125,-0.5701446533203125
1665946111672723000,2.844722900390625,-0.094329833984375,-0.7952423095703125,-0.584991455078125
1665946111682804200,2.85480419921875,-0.102020263671875,-0.7968597412109375,-0.563262939453125
1665946111692886000,2.864885986328125,-0.1124114990234375,-0.7353057861328125,-0.50152587890625
1665946111702967000,2.874967041015625,-0.1424560546875,-0.66796875,-0.46209716796875
1665946111713048300,2.88504833984375,-0.140411376953125,-0.728759765625,-0.473602294921875
1665946111723129000,2.895129150390625,-0.118621826171875,-0.821929931640625,-0.5138702392578125
1665946111733211100,2.905211181640625,-0.08447265625,-0.8616180419921875,-0.5107421875
1665946111743292200,2.915292236328125,-0.0363922119140625,-0.8583831787109375,-0.4330291748046875
1665946111753373200,2.925373291015625,0.029693603515625,-0.869659423828125,-0.2934722900390625
1665946111763455200,2.935455322265625,0.1110076904296875,-0.94110107421875,-0.139862060546875
1665946111773536300,2.945536376953125,0.1847076416015625,-0.9843292236328125,-0.0216064453125
1665946111783617000,2.955616943359375,0.2325592041015625,-0.9914703369140625,0.0175933837890625
1665946111793699000,2.965698974609375,0.28179931640625,-1.025604248046875,0.0302581787109375
1665946111803780000,2.975780029296875,0.2732696533203125,-1.0545501708984375,0.1119537353515625
1665946111813861000,2.985861083984375,0.1576385498046875,-1.069091796875,0.14312744140625
1665946111823942100,2.995942138671875,0.103302001953125,-1.021331787109375,0.09600830078125
1665946111834024200,3.006024169921875,0.10797119140625,-1.010009765625,0.0415191650390625
1665946111844105200,3.016105224609375,0.157257080078125,-1.021392822265625,-0.0181427001953125
1665946111854186000,3.02618603515625,0.20965576171875,-1.0201873779296875,-0.064483642578125
1665946111864268000,3.03626806640625,0.2364959716796875,-1.0356903076171875,-0.106231689453125
1665946111874349000,3.04634912109375,0.2235260009765625,-1.0283660888671875,-0.140167236328125
1665946111884430000,3.05643017578125,-0.1546478271484375,-0.908599853515625,-0.1142730712890625
1665946111894512000,3.06651220703125,0.103912353515625,-1.0056610107421875,-0.1717071533203125
1665946111904593200,3.07659326171875,0.2068328857421875,-1.04595947265625,-0.235382080078125
1665946111914674000,3.086673828125,0.2128448486328125,-1.00677490234375,-0.2910919189453125
1665946111924755200,3.096755126953125,0.1994476318359375,-0.9178314208984375,-0.3311309814453125
1665946111934837000,3.1068369140625,0.0283355712890625,-0.7818145751953125,-0.385894775390625
1665946111944918300,3.116918212890625,0.119415283203125,-0.915557861328125,-0.4217529296875
1665946111954999300,3.126999267578125,0.5443267822265625,-1.1233367919921875,-0.4242706298828125
1665946111965081000,3.1370810546875,0.7651214599609375,-1.008148193359375,-0.344757080078125
1665946111975162000,3.147162109375,0.7054901123046875,-0.8588409423828125,-0.3113250732421875
1665946111985243100,3.1572431640625,0.4962615966796875,-0.83319091796875,-0.365966796875
1665946111995325200,3.1673251953125,0.3211517333984375,-0.7736053466796875,-0.370025634765625
1665946112005406200,3.17740625,0.1445465087890625,-0.827606201171875,-0.43658447265625
1665946112015487200,3.1874873046875,-0.23443603515625,-0.95037841796875,-0.6736602783203125
1665946112025568300,3.197568359375,-0.3260345458984375,-0.863494873046875,-0.407318115234375
1665946112035650000,3.207650146484375,-0.1998138427734375,-0.8541412353515625,-0.25531005859375
1665946112045731000,3.21773095703125,-0.054443359375,-0.9595947265625,-0.1566314697265625
1665946112055812000,3.22781201171875,0.0466461181640625,-1.0230560302734375,-0.068603515625
1665946112065894100,3.23789404296875,0.14288330078125,-1.03521728515625,-0.02886962890625
1665946112075975200,3.24797509765625,0.32452392578125,-1.0579376220703125,-0.052032470703125
1665946112086056200,3.25805615234375,0.4188690185546875,-1.0229644775390625,-0.1759796142578125
1665946112096138200,3.26813818359375,0.489013671875,-0.94134521484375,-0.268096923828125
1665946112106219000,3.278218994140625,0.4546661376953125,-0.9267425537109375,-0.290252685546875
1665946112116300000,3.288300048828125,0.310760498046875,-0.8823089599609375,-0.225860595703125
1665946112126382000,3.298382080078125,0.1910247802734375,-0.8644256591796875,-0.1723785400390625
1665946112136463000,3.308463134765625,0.1539764404296875,-0.90228271484375,-0.136810302734375
1665946112146544000,3.318544189453125,0.1378631591796875,-0.922607421875,-0.10357666015625
1665946112156625200,3.328625244140625,0.128326416015625,-0.9483184814453125,-0.084320068359375
1665946112166707000,3.33870703125,0.1276702880859375,-0.977081298828125,-0.0863189697265625
1665946112176788000,3.3487880859375,0.12176513671875,-1.0031280517578125,-0.10235595703125
1665946112186869200,3.358869140625,0.1126251220703125,-1.031707763671875,-0.1217193603515625
1665946112196951000,3.368950927734375,0.1029052734375,-1.0488128662109375,-0.14813232421875
1665946112207032300,3.3790322265625,0.1066741943359375,-1.03839111328125,-0.1888427734375
1665946112217113000,3.389113037109375,0.12677001953125,-0.979888916015625,-0.2470703125
1665946112227195100,3.399195068359375,0.517425537109375,0.5699005126953125,-1.2030029296875
1665946112237276200,3.409276123046875,0.31365966796875,0.605010986328125,-0.8250579833984375
1665946112247357200,3.419357177734375,-0.3172454833984375,-0.06976318359375,0.2511444091796875
1665946112257439200,3.429439208984375,0.0047454833984375,-0.107025146484375,-0.1013336181640625
1665946112267520300,3.439520263671875,0.0745391845703125,-0.5363922119140625,0.019622802734375
1665946112277601300,3.449601318359375,0.3069610595703125,-0.7419281005859375,0.0357513427734375
1665946112287683300,3.459683349609375,0.504974365234375,-0.708953857421875,-0.026397705078125
1665946112297764000,3.46976416015625,0.5888519287109375,-0.8325347900390625,0.0598602294921875
1665946112307845000,3.47984521484375,0.5191802978515625,-0.7276458740234375,0.1141357421875
1665946112317926100,3.489926025390625,0.1161651611328125,-0.7249755859375,0.152252197265625
1665946112328008200,3.50000830078125,-0.5679779052734375,-0.839263916015625,-0.0916748046875
1665946112338089200,3.510089111328125,-0.9314117431640625,-0.5984344482421875,-0.46185302734375
1665946112348170000,3.520169921875,-1.1537628173828125,-0.542083740234375,-0.2322845458984375
1665946112358252000,3.530251953125,-0.5910797119140625,-0.7304229736328125,-0.1454010009765625
1665946112368333000,3.5403330078125,-0.010528564453125,-1.3053741455078125,-0.2413787841796875
1665946112378414000,3.5504140625,0.3122100830078125,-2.4296112060546875,-0.6185150146484375
1665946112388496100,3.56049609375,0.3852996826171875,-3.7248077392578125,-1.0680694580078125
1665946112398577200,3.5705771484375,0.376312255859375,-2.323944091796875,-1.0961761474609375
1665946112408658000,3.580657958984375,0.20257568359375,-1.546112060546875,-0.91729736328125
1665946112418740000,3.590739990234375,-0.054229736328125,-1.3473663330078125,-0.3128662109375
1665946112428821800,3.60082177734375,-0.0101165771484375,-1.2263336181640625,0.10711669921875
1665946112438902800,3.61090283203125,0.1122283935546875,-1.1244964599609375,0.1137542724609375
1665946112448984800,3.62098486328125,0.0791015625,-1.0666046142578125,0.1883544921875
1665946112459065600,3.631065673828125,0.0251312255859375,-0.9057769775390625,0.2229156494140625
1665946112469146600,3.641146728515625,0.236083984375,-0.8088226318359375,0.209075927734375
1665946112479228700,3.651228759765625,0.481964111328125,-0.684539794921875,0.0955352783203125
1665946112489309700,3.661309814453125,0.4331512451171875,-0.5727386474609375,-0.10638427734375
1665946112499390700,3.671390625,-0.3476409912109375,-1.138427734375,-0.48223876953125
1665946112509472800,3.68147265625,-0.41162109375,-1.316497802734375,-0.4772491455078125
1665946112519553500,3.691553466796875,-0.0468597412109375,-1.128021240234375,-0.3048553466796875
1665946112529634800,3.701634765625,0.1314239501953125,-0.92340087890625,-0.207672119140625
1665946112539716600,3.711716552734375,0.118560791015625,-0.9013671875,-0.162322998046875
1665946112549798000,3.7217978515625,0.0468292236328125,-0.9380645751953125,-0.1578826904296875
1665946112559879000,3.73187890625,0.017547607421875,-0.9753265380859375,-0.16937255859375
1665946112569959700,3.741959716796875,0.029876708984375,-0.9865264892578125,-0.1815338134765625
1665946112580041700,3.752041748046875,0.0461578369140625,-0.9732666015625,-0.189361572265625
1665946112590122800,3.762122802734375,0.05828857421875,-0.9522857666015625,-0.1937713623046875
1665946112600203800,3.772203857421875,0.063812255859375,-0.93670654296875,-0.1958160400390625
1665946112610285800,3.782285888671875,0.0625152587890625,-0.9294586181640625,-0.204681396484375
1665946112620366800,3.792366943359375,0.0553741455078125,-0.9283905029296875,-0.2208251953125
1665946112630447900,3.80244775390625,0.0518951416015625,-0.9326019287109375,-0.236419677734375
1665946112640530000,3.812530029296875,0.053192138671875,-0.931884765625,-0.24481201171875
1665946112650610700,3.822610595703125,0.0541534423828125,-0.92877197265625,-0.24609375
1665946112660691700,3.832691650390625,0.055450439453125,-0.92364501953125,-0.2436981201171875
1665946112670773800,3.842773681640625,0.0562591552734375,-0.9201202392578125,-0.243560791015625
1665946112680854800,3.852854736328125,0.0536041259765625,-0.910308837890625,-0.2413330078125
1665946112690935800,3.862935791015625,0.0562286376953125,-0.91815185546875,-0.257537841796875
1665946112701017900,3.873017822265625,0.0523529052734375,-0.9241790771484375,-0.260772705078125
1665946112711098600,3.8830986328125,0.0363006591796875,-0.9288177490234375,-0.268798828125
1665946112721179600,3.8931796875,0.0234527587890625,-0.93841552734375,-0.276153564453125
1665946112731261700,3.90326171875,0.0139312744140625,-0.9491424560546875,-0.28082275390625
1665946112741342700,3.9133427734375,0.0074462890625,-0.958282470703125,-0.2771453857421875
1665946112751423700,3.923423828125,0.0059356689453125,-0.975799560546875,-0.2963409423828125
1665946112761505800,3.933505859375,-0.0076904296875,-0.9761199951171875,-0.2827301025390625
1665946112771586600,3.943586669921875,-0.02874755859375,-0.9678802490234375,-0.278076171875
1665946112781667600,3.95366748046875,-0.041961669921875,-0.9653167724609375,-0.276336669921875
1665946112791749600,3.96374951171875,-0.0514678955078125,-0.9743194580078125,-0.2707061767578125
1665946112801830700,3.97383056640625,-0.067291259765625,-0.986328125,-0.2532501220703125
1665946112811912000,3.983911865234375,-0.0650787353515625,-1.00225830078125,-0.2275543212890625
1665946112821993700,3.99399365234375,-0.02178955078125,-1.0207061767578125,-0.2092742919921875
1665946112832074800,4.00407470703125,0.04693603515625,-1.055419921875,-0.19000244140625
1665946112842156500,4.014156494140625,0.101715087890625,-1.0857391357421875,-0.1696319580078125
1665946112852237800,4.02423779296875,0.1177215576171875,-1.0970306396484375,-0.1499176025390625
1665946112862318800,4.03431884765625,0.094818115234375,-1.1033172607421875,-0.132781982421875
1665946112872400600,4.044400634765625,0.03594970703125,-1.1253662109375,-0.1093597412109375
1665946112882482000,4.05448193359375,-0.033416748046875,-1.15899658203125,-0.0798187255859375
1665946112892563000,4.06456298828125,-0.10467529296875,-1.228057861328125,-0.0547027587890625
1665946112902645000,4.07464501953125,-0.15032958984375,-1.3029327392578125,-0.03741455078125
1665946112912725800,4.084725830078125,-0.16534423828125,-1.3753509521484375,-0.0152130126953125
1665946112922806800,4.094806884765625,-0.1314849853515625,-1.4383392333984375,-0.0399169921875
1665946112932888800,4.104888916015625,-0.040008544921875,-1.451568603515625,-0.125823974609375
1665946112942969900,4.114969970703125,0.0695343017578125,-1.3939056396484375,-0.238189697265625
1665946112953051000,4.12505078125,0.12713623046875,-1.2942352294921875,-0.31170654296875
1665946112963133000,4.1351328125,0.140777587890625,-1.1975860595703125,-0.3521575927734375
1665946112973213700,4.145213623046875,0.1158905029296875,-1.132843017578125,-0.35980224609375
1665946112983294700,4.155294677734375,0.0623321533203125,-1.0828399658203125,-0.32568359375
1665946112993376800,4.165376708984375,0.0081634521484375,-1.0467529296875,-0.255126953125
1665946113003457800,4.175457763671875,-0.045135498046875,-1.02044677734375,-0.165679931640625
1665946113013538800,4.185538818359375,-0.0756683349609375,-1.0064849853515625,-0.077301025390625
1665946113023620900,4.195620849609375,-0.0842742919921875,-1.00885009765625,0.006561279296875
1665946113033701600,4.20570166015625,-0.0906219482421875,-1.0247650146484375,0.0807342529296875
1665946113043782700,4.21578271484375,-0.104644775390625,-1.0516815185546875,0.1326751708984375
1665946113053864700,4.22586474609375,-0.11883544921875,-1.0717010498046875,0.1591949462890625
1665946113063945700,4.23594580078125,-0.135009765625,-1.074554443359375,0.1833038330078125
1665946113074026800,4.24602685546875,-0.1570281982421875,-1.0668792724609375,0.1796722412109375
1665946113084108800,4.25610888671875,-0.1865234375,-1.05706787109375,0.1505126953125
1665946113094189600,4.266189453125,-0.1955108642578125,-1.0243377685546875,0.127105712890625
1665946113104271600,4.276271728515625,-0.1592559814453125,-0.9767608642578125,0.0861053466796875
1665946113114352600,4.2863525390625,-0.1321868896484375,-0.916290283203125,0.01324462890625
1665946113124433700,4.29643359375,-0.1366424560546875,-0.8683624267578125,-0.0406646728515625
1665946113134515700,4.306515625,-0.1357879638671875,-0.84051513671875,-0.068939208984375
1665946113144596700,4.3165966796875,-0.1285552978515625,-0.8251495361328125,-0.1139984130859375
1665946113154677800,4.326677734375,-0.1158447265625,-0.8312530517578125,-0.135009765625
1665946113164759800,4.336759765625,-0.11968994140625,-0.83892822265625,-0.1362152099609375
1665946113174840600,4.346840576171875,-0.1502532958984375,-0.845489501953125,-0.122467041015625
1665946113184921900,4.356921875,-0.192535400390625,-0.839996337890625,-0.1007232666015625
1665946113195003600,4.367003662109375,-0.227203369140625,-0.82464599609375,-0.0765533447265625
1665946113205085000,4.3770849609375,-0.24737548828125,-0.8010711669921875,-0.0535888671875
1665946113215166000,4.387166015625,-0.27203369140625,-0.7581634521484375,-0.0747833251953125
1665946113225247700,4.397247802734375,-0.27947998046875,-0.7409820556640625,-0.0584869384765625
1665946113235328800,4.407328857421875,-0.2876434326171875,-0.7273101806640625,-0.049896240234375
1665946113245410600,4.41741064453125,-0.3052215576171875,-0.7192230224609375,-0.045623779296875
1665946113255491800,4.427491943359375,-0.318634033203125,-0.7126617431640625,-0.0442657470703125
1665946113265572900,4.43757275390625,-0.3319549560546875,-0.7070465087890625,-0.0576934814453125
1665946113275655000,4.447655029296875,-0.349090576171875,-0.7140655517578125,-0.0693511962890625
1665946113285736000,4.45773583984375,-0.3681182861328125,-0.725311279296875,-0.078582763671875
1665946113295816700,4.467816650390625,-0.3816680908203125,-0.73809814453125,-0.0848541259765625
1665946113305898800,4.477898681640625,-0.3923797607421875,-0.7691802978515625,-0.10235595703125
1665946113315979800,4.487979736328125,-0.4031982421875,-0.7822418212890625,-0.11517333984375
1665946113326060800,4.498060791015625,-0.4076995849609375,-0.7951812744140625,-0.1216583251953125
1665946113336142800,4.508142822265625,-0.4145660400390625,-0.7969970703125,-0.1252288818359375
1665946113346223900,4.518223876953125,-0.4181671142578125,-0.7908477783203125,-0.125213623046875
1665946113356306000,4.528305908203125,-0.41717529296875,-0.78515625,-0.1259918212890625
1665946113366386700,4.53838671875,-0.4097900390625,-0.777130126953125,-0.1184234619140625
1665946113376467700,4.5484677734375,-0.40057373046875,-0.77117919921875,-0.121673583984375
1665946113386549800,4.5585498046875,-0.40283203125,-0.7765350341796875,-0.141387939453125
1665946113396630800,4.568630859375,-0.427978515625,-0.79254150390625,-0.159271240234375
1665946113406711800,4.5787119140625,-0.458526611328125,-0.803680419921875,-0.1696014404296875
1665946113416793900,4.5887939453125,-0.4855499267578125,-0.8357391357421875,-0.194122314453125
1665946113426874600,4.59887451171875,-0.528839111328125,-0.860382080078125,-0.2207489013671875
1665946113436956700,4.608956787109375,-0.5661163330078125,-0.8802032470703125,-0.2298736572265625
1665946113447037700,4.61903759765625,-0.59442138671875,-0.9043731689453125,-0.2466888427734375
1665946113457118700,4.62911865234375,-0.6207427978515625,-0.95269775390625,-0.2440643310546875
1665946113467200500,4.639200439453125,-0.6485748291015625,-0.951995849609375,-0.3251800537109375
1665946113477281500,4.649281494140625,-0.65582275390625,-0.9221649169921875,-0.422149658203125
1665946113487362600,4.659362548828125,-0.660491943359375,-0.9536895751953125,-0.4398040771484375
1665946113497444600,4.669444580078125,-0.6556854248046875,-0.919189453125,-0.44903564453125
1665946113507525600,4.679525634765625,-0.6209259033203125,-0.8572845458984375,-0.429962158203125
1665946113517607700,4.689607666015625,-0.5587615966796875,-0.764923095703125,-0.4294586181640625
1665946113527688700,4.699688720703125,-0.493194580078125,-0.7333221435546875,-0.3978118896484375
1665946113537769500,4.70976953125,-0.4720001220703125,-0.91778564453125,-0.31787109375
1665946113547851500,4.7198515625,-0.4608917236328125,-1.1970367431640625,-0.453338623046875
1665946113557932500,4.7299326171875,-0.3907318115234375,-1.468719482421875,-0.604888916015625
1665946113568014600,4.7400146484375,-0.22576904296875,-1.70654296875,-0.64276123046875
1665946113578095600,4.750095703125,-0.077484130859375,-1.8845672607421875,-0.6214447021484375
1665946113588176600,4.7601767578125,-0.0383148193359375,-1.7347564697265625,-0.4679107666015625
1665946113598258700,4.7702587890625,-0.15234375,-1.1102294921875,-0.230316162109375
1665946113608339500,4.78033935546875,-0.2798004150390625,-0.551300048828125,-0.024932861328125
1665946113618420500,4.79042041015625,-0.223663330078125,-0.3717041015625,0.142578125
1665946113628502500,4.80050244140625,-0.1334991455078125,-0.376129150390625,0.2140960693359375
1665946113638583600,4.81058349609375,-0.1282958984375,-0.410369873046875,0.2874298095703125
1665946113648665600,4.82066552734375,-0.1817474365234375,-0.4143218994140625,0.3514404296875
1665946113658746600,4.83074658203125,-0.19793701171875,-0.4900360107421875,0.3098602294921875
1665946113668827600,4.84082763671875,-0.1493072509765625,-0.7359619140625,0.1286468505859375
1665946113678909400,4.850909423828125,0.018890380859375,-1.040985107421875,-0.12066650390625
1665946113688990700,4.86099072265625,0.2864837646484375,-1.2472686767578125,-0.386199951171875
1665946113699072500,4.871072509765625,0.49859619140625,-1.3372344970703125,-0.6349945068359375
1665946113709153500,4.881153564453125,0.6068572998046875,-1.3484344482421875,-0.7994232177734375
1665946113719234800,4.89123486328125,0.57177734375,-1.3401336669921875,-0.8097076416015625
1665946113729316600,4.901316650390625,0.2939453125,-1.2858428955078125,-0.546112060546875
1665946113739397600,4.911397705078125,-0.0746917724609375,-1.09765625,-0.251190185546875
1665946113749479400,4.9214794921875,-0.290130615234375,-0.840240478515625,-0.104766845703125
1665946113759560700,4.931560791015625,-0.3798065185546875,-0.7440338134765625,0.0015716552734375
1665946113769641700,4.941641845703125,-0.2953643798828125,-0.7503662109375,-0.010986328125
1665946113779723500,4.9517236328125,-0.1446990966796875,-0.7995452880859375,-0.1082763671875
1665946113789804800,4.9618046875,-0.021087646484375,-0.8709564208984375,-0.2130126953125
1665946113799885800,4.9718857421875,0.0435943603515625,-0.921478271484375,-0.2784423828125
1665946113809967600,4.981967529296875,0.0907745361328125,-0.9587249755859375,-0.3025360107421875
1665946113820048600,4.992048583984375,0.1393890380859375,-0.9528961181640625,-0.3145294189453125
1665946113830130700,5.002130615234375,0.1356658935546875,-0.9241790771484375,-0.2851715087890625
1665946113840211700,5.012211669921875,0.1147003173828125,-0.9164276123046875,-0.2336273193359375
1665946113850292700,5.022292724609375,0.0951385498046875,-0.921295166015625,-0.1771240234375
1665946113860374800,5.032374755859375,0.0487060546875,-0.935302734375,-0.1107940673828125
1665946113870455800,5.042455810546875,-0.0097503662109375,-0.955413818359375,-0.0636444091796875
1665946113880537900,5.052537841796875,-0.0511016845703125,-0.968414306640625,-0.0344696044921875
1665946113890618600,5.06261865234375,-0.069915771484375,-0.94183349609375,-0.079742431640625
1665946113900699600,5.07269970703125,-0.0575714111328125,-0.9262847900390625,-0.1002960205078125
1665946113910781700,5.08278173828125,-0.00836181640625,-0.888702392578125,-0.1356964111328125
1665946113920862700,5.09286279296875,0.0647735595703125,-0.8855743408203125,-0.1279296875
1665946113930944800,5.10294482421875,0.12213134765625,-0.8616485595703125,-0.1562957763671875
1665946113941025800,5.11302587890625,0.1471710205078125,-0.861083984375,-0.16943359375
1665946113951106600,5.1231064453125,0.1622314453125,-0.88385009765625,-0.1735992431640625
1665946113961188600,5.133188720703125,0.1715240478515625,-0.909454345703125,-0.16534423828125
1665946113971269600,5.14326953125,0.1875,-0.9274444580078125,-0.153564453125
1665946113981351700,5.1533515625,0.1726226806640625,-0.9581146240234375,-0.120208740234375
1665946113991432700,5.1634326171875,0.156402587890625,-0.9761505126953125,-0.0998992919921875
1665946114001513700,5.173513671875,0.116424560546875,-0.96954345703125,-0.0948944091796875
1665946114011595800,5.183595703125,0.0953369140625,-1.0007476806640625,-0.0574493408203125
1665946114021676500,5.193676513671875,0.0973968505859375,-0.994659423828125,-0.0626983642578125
1665946114031758600,5.203758544921875,0.1023712158203125,-0.986785888671875,-0.0716094970703125
1665946114041839600,5.213839599609375,0.108489990234375,-0.9972076416015625,-0.0861968994140625
1665946114051921700,5.223921630859375,0.1024322509765625,-1.0029144287109375,-0.1133575439453125
1665946114062002700,5.234002685546875,0.0972137451171875,-1.05157470703125,-0.1497344970703125
1665946114072083700,5.244083740234375,0.085296630859375,-1.0792388916015625,-0.183441162109375
1665946114082165800,5.254165771484375,0.079376220703125,-1.0831451416015625,-0.2203216552734375
1665946114092246500,5.26424658203125,0.094757080078125,-1.0897216796875,-0.2569580078125
1665946114102328600,5.27432861328125,0.120361328125,-1.0814361572265625,-0.29522705078125
1665946114112409600,5.28440966796875,0.1563873291015625,-1.06390380859375,-0.34619140625
1665946114122490600,5.29449072265625,0.17572021484375,-1.060791015625,-0.4146728515625
1665946114132572700,5.30457275390625,0.170440673828125,-1.0709686279296875,-0.46710205078125
1665946114142653700,5.31465380859375,0.1712493896484375,-1.0745849609375,-0.4821319580078125
1665946114152735700,5.32473583984375,0.1775054931640625,-1.09710693359375,-0.49725341796875
1665946114162816500,5.33481640625,0.1854095458984375,-1.1285858154296875,-0.5010528564453125
1665946114172897500,5.3448974609375,0.18292236328125,-1.1776123046875,-0.4825439453125
1665946114182979600,5.3549794921875,0.164581298828125,-1.223785400390625,-0.41748046875
1665946114193060600,5.365060546875,0.1009063720703125,-1.305267333984375,-0.3111419677734375
1665946114203142700,5.375142578125,0.0364227294921875,-1.352783203125,-0.2043914794921875
1665946114213223700,5.3852236328125,0.007110595703125,-1.376708984375,-0.117767333984375
1665946114223305700,5.3953056640625,-0.002471923828125,-1.3563690185546875,-0.054718017578125
1665946114233386500,5.405386474609375,0.00390625,-1.29388427734375,-0.0352783203125
1665946114243467500,5.415467529296875,0.017669677734375,-1.2234039306640625,-0.03656005859375
1665946114253549600,5.425549560546875,0.041229248046875,-1.1598663330078125,-0.0442962646484375
1665946114263630600,5.435630615234375,0.103424072265625,-1.0979766845703125,-0.0399169921875
1665946114273712600,5.445712646484375,0.1077423095703125,-1.02740478515625,-0.02374267578125
1665946114283793700,5.455793701171875,0.0173797607421875,-0.9761810302734375,0.063629150390625
1665946114293874700,5.465874755859375,-0.075469970703125,-0.9526519775390625,0.1361846923828125
1665946114303956700,5.475956787109375,-0.114227294921875,-1.0054779052734375,0.153411865234375
1665946114314037500,5.48603759765625,-0.1027984619140625,-1.12994384765625,0.1692962646484375
1665946114324119600,5.49611962890625,-0.0628662109375,-1.251678466796875,0.21038818359375
1665946114334200600,5.50620068359375,0.000885009765625,-1.33660888671875,0.2435760498046875
1665946114344281600,5.516281494140625,0.0882110595703125,-1.3723602294921875,0.22705078125
1665946114354363600,5.52636376953125,0.1710205078125,-1.3766632080078125,0.1743927001953125
1665946114364444700,5.536444580078125,0.141937255859375,-1.336517333984375,0.1215057373046875
1665946114374526700,5.546526611328125,0.0499267578125,-1.251434326171875,0.06512451171875
1665946114384607500,5.556607421875,0.0263671875,-1.1676788330078125,-0.0023040771484375
1665946114394689500,5.566689453125,0.0301055908203125,-1.082244873046875,-0.0340118408203125
1665946114404770600,5.5767705078125,0.051849365234375,-0.994110107421875,-0.0419769287109375
1665946114414851600,5.5868515625,0.0814056396484375,-0.9017486572265625,-0.0496673583984375
1665946114424933600,5.59693359375,0.0988006591796875,-0.815704345703125,-0.0601043701171875
1665946114435014000,5.607013916015625,0.090972900390625,-0.74951171875,-0.0587615966796875
1665946114445096000,5.617095947265625,0.0578460693359375,-0.73590087890625,-0.0360565185546875
1665946114455176700,5.6271767578125,0.0083770751953125,-0.7364044189453125,-0.0085296630859375
1665946114465258800,5.6372587890625,-0.044342041015625,-0.740142822265625,-0.008758544921875
1665946114475339800,5.64733984375,-0.0890045166015625,-0.74920654296875,-0.02618408203125
1665946114485421000,5.657421142578125,-0.1128692626953125,-0.765106201171875,-0.016876220703125
1665946114495502800,5.6675029296875,-0.1504058837890625,-0.7640838623046875,-0.0142974853515625
1665946114505584000,5.677584228515625,-0.1952972412109375,-0.750732421875,-0.00347900390625
1665946114515666000,5.687666015625,-0.219757080078125,-0.7351226806640625,0.0069427490234375
1665946114525747000,5.697746826171875,-0.235626220703125,-0.7239837646484375,0.0172576904296875
1665946114535828700,5.707828857421875,-0.2528533935546875,-0.7109222412109375,0.0220184326171875
1665946114545909800,5.71790966796875,-0.2627410888671875,-0.7097930908203125,0.014739990234375
1665946114555991000,5.727990966796875,-0.2686767578125,-0.710174560546875,0.000579833984375
1665946114566072800,5.73807275390625,-0.285003662109375,-0.695068359375,-0.0280609130859375
1665946114576154000,5.748154052734375,-0.3065032958984375,-0.6774444580078125,-0.055999755859375
1665946114586236000,5.75823583984375,-0.335968017578125,-0.662811279296875,-0.0967559814453125
1665946114596317000,5.76831689453125,-0.354400634765625,-0.6622161865234375,-0.119415283203125
1665946114606398700,5.778398681640625,-0.3502197265625,-0.66204833984375,-0.142913818359375
1665946114616480000,5.78847998046875,-0.3430938720703125,-0.66448974609375,-0.1787872314453125
1665946114626561800,5.798561767578125,-0.3167877197265625,-0.6902923583984375,-0.163482666015625
1665946114636642800,5.808642822265625,-0.285125732421875,-0.7178802490234375,-0.140716552734375
1665946114646724000,5.81872412109375,-0.2858428955078125,-0.7131195068359375,-0.1945037841796875
1665946114656806000,5.828805908203125,-0.2965850830078125,-0.746246337890625,-0.1840362548828125
1665946114666887000,5.838886962890625,-0.33306884765625,-0.7944793701171875,-0.1733551025390625
1665946114676968700,5.84896875,-0.38519287109375,-0.83441162109375,-0.196533203125
1665946114687050000,5.859050048828125,-0.442779541015625,-0.8695526123046875,-0.2490081787109375
1665946114697131800,5.8691318359375,-0.4904632568359375,-0.9325714111328125,-0.268402099609375
1665946114707212800,5.879212890625,-0.54302978515625,-0.988555908203125,-0.3361053466796875
1665946114717294800,5.889294921875,-0.5886993408203125,-1.027557373046875,-0.4243011474609375
1665946114727376000,5.8993759765625,-0.607452392578125,-1.092803955078125,-0.441436767578125
1665946114737457200,5.90945703125,-0.596099853515625,-1.1379241943359375,-0.509613037109375
1665946114747539000,5.9195390625,-0.549652099609375,-1.1630706787109375,-0.566741943359375
1665946114757620000,5.929619873046875,-0.4793853759765625,-1.14556884765625,-0.5659637451171875
1665946114767701800,5.93970166015625,-0.397735595703125,-1.0651702880859375,-0.5013885498046875
1665946114777783000,5.949782958984375,-0.3375701904296875,-0.9561309814453125,-0.4079742431640625
1665946114787864800,5.95986474609375,-0.34954833984375,-0.919830322265625,-0.3125457763671875
1665946114797945900,5.96994580078125,-0.427276611328125,-1.041046142578125,-0.2008209228515625
1665946114808028000,5.98002783203125,-0.4573974609375,-1.28839111328125,-0.210052490234375
1665946114818109000,5.99010888671875,-0.44305419921875,-1.550567626953125,-0.364776611328125
1665946114828190000,6.00018994140625,-0.46160888671875,-1.70477294921875,-0.4643096923828125
1665946114838271700,6.010271728515625,-0.455810546875,-1.53607177734375,-0.3353118896484375
1665946114848353000,6.02035302734375,-0.4131927490234375,-1.0861358642578125,-0.0611572265625
1665946114858434800,6.030434814453125,-0.3526611328125,-0.6838836669921875,0.1219482421875
1665946114868516000,6.04051611328125,-0.1807861328125,-0.482666015625,0.2677764892578125
1665946114878598000,6.050597900390625,-0.0351104736328125,-0.50482177734375,0.35650634765625
1665946114888679000,6.060678955078125,0.0047454833984375,-0.5980987548828125,0.3721771240234375
1665946114898761000,6.070760986328125,-0.012786865234375,-0.6569671630859375,0.4024505615234375
1665946114908841700,6.080841796875,-0.045684814453125,-0.74139404296875,0.3861236572265625
1665946114918923000,6.090923095703125,-0.070465087890625,-0.8538818359375,0.2838287353515625
1665946114929004800,6.1010048828125,-0.0592193603515625,-0.961944580078125,0.1436614990234375
1665946114939086000,6.111086181640625,0.0153045654296875,-1.0521087646484375,0.0219268798828125
1665946114949167900,6.12116796875,0.1318206787109375,-1.126434326171875,-0.0953826904296875
1665946114959249000,6.131248779296875,0.252044677734375,-1.2014312744140625,-0.2124176025390625
1665946114969331000,6.1413310546875,0.3443756103515625,-1.249786376953125,-0.295654296875
1665946114979412000,6.151411865234375,0.3751373291015625,-1.2922515869140625,-0.34918212890625
1665946114989493800,6.16149365234375,0.3053436279296875,-1.291229248046875,-0.3453521728515625
1665946114999574800,6.17157470703125,0.1352996826171875,-1.1949005126953125,-0.2625274658203125
1665946115009656800,6.18165673828125,-0.0049896240234375,-1.0510711669921875,-0.1739349365234375
1665946115019737900,6.19173779296875,-0.054534912109375,-0.9376678466796875,-0.119842529296875
1665946115029819100,6.201819091796875,-0.0091094970703125,-0.8720703125,-0.1144256591796875
1665946115039901000,6.21190087890625,0.0859375,-0.84576416015625,-0.1316986083984375
1665946115049982000,6.22198193359375,0.1472930908203125,-0.8424224853515625,-0.1698760986328125
1665946115060063700,6.232063720703125,0.1696624755859375,-0.838470458984375,-0.206390380859375
1665946115070144800,6.242144775390625,0.230194091796875,-0.85076904296875,-0.2098541259765625
1665946115080226800,6.252226806640625,0.27679443359375,-0.8690185546875,-0.22210693359375
1665946115090307800,6.262307861328125,0.29791259765625,-0.8778076171875,-0.207855224609375
1665946115100390000,6.272389892578125,0.2786102294921875,-0.897705078125,-0.20843505859375
1665946115110471000,6.282470947265625,0.27947998046875,-0.901153564453125,-0.2068634033203125
1665946115120553000,6.292552978515625,0.2838897705078125,-0.8317718505859375,-0.228912353515625
1665946115130633700,6.3026337890625,0.2813262939453125,-0.8762359619140625,-0.20166015625
1665946115140715000,6.312715087890625,0.2737884521484375,-0.9149169921875,-0.183837890625
1665946115150796800,6.322796875,0.265106201171875,-0.895294189453125,-0.2051849365234375
1665946115160877800,6.3328779296875,0.2209625244140625,-0.931915283203125,-0.19195556640625
1665946115170960000,6.3429599609375,0.1752166748046875,-0.9426422119140625,-0.222198486328125
1665946115181041000,6.353041015625,0.1300506591796875,-0.9542083740234375,-0.2407684326171875
1665946115191123000,6.363123046875,0.107330322265625,-0.98388671875,-0.226409912109375
1665946115201203700,6.37320361328125,0.1097259521484375,-1.006439208984375,-0.24517822265625
1665946115211285800,6.38328564453125,0.1210784912109375,-1.0120849609375,-0.293701171875
1665946115221366800,6.39336669921875,0.1273345947265625,-1.0239715576171875,-0.3220062255859375
1665946115231448800,6.40344873046875,0.159393310546875,-0.9989166259765625,-0.3768768310546875
1665946115241529900,6.41352978515625,0.18560791015625,-0.959716796875,-0.40289306640625
1665946115251611000,6.42361083984375,0.1723175048828125,-0.970001220703125,-0.40667724609375
1665946115261693000,6.43369287109375,0.162567138671875,-0.977447509765625,-0.378662109375
1665946115271773700,6.443773681640625,0.156005859375,-0.9810333251953125,-0.34686279296875
1665946115281855700,6.453855712890625,0.1332855224609375,-0.9748382568359375,-0.331207275390625
1665946115291936800,6.463936767578125,0.08544921875,-1.013580322265625,-0.302947998046875
1665946115302018800,6.474018798828125,0.0542144775390625,-1.0074920654296875,-0.3015594482421875
1665946115312099800,6.484099853515625,0.0355224609375,-1.0012664794921875,-0.3097076416015625
1665946115322182000,6.494181884765625,0.0603790283203125,-1.01788330078125,-0.3318939208984375
1665946115332263000,6.504262939453125,0.0836181640625,-1.0214996337890625,-0.34283447265625
1665946115342345000,6.514344970703125,0.0921478271484375,-0.993377685546875,-0.3459014892578125
1665946115352425700,6.52442578125,0.0499267578125,-0.9986724853515625,-0.30078125
1665946115362507800,6.5345078125,0.0294952392578125,-1.0060577392578125,-0.2708740234375
1665946115372588800,6.5445888671875,0.0453033447265625,-0.9929962158203125,-0.25518798828125
1665946115382670800,6.5546708984375,0.03985595703125,-0.9976043701171875,-0.2260284423828125
1665946115392751900,6.564751953125,0.00634765625,-1.0340118408203125,-0.1826324462890625
1665946115402833000,6.5748330078125,0.001495361328125,-1.023651123046875,-0.186279296875
1665946115412915000,6.5849150390625,0.0513763427734375,-1.01513671875,-0.21881103515625
1665946115422996000,6.594995849609375,0.131256103515625,-1.106658935546875,-0.2362823486328125
1665946115433078800,6.605078857421875,0.1946258544921875,-1.1852264404296875,-0.25982666015625
1665946115443159800,6.615159912109375,0.1581573486328125,-1.2530670166015625,-0.22259521484375
1665946115453241900,6.625241943359375,0.0957489013671875,-1.253814697265625,-0.20147705078125
1665946115463323000,6.635322998046875,0.0689544677734375,-1.3032989501953125,-0.166046142578125
1665946115473405000,6.645405029296875,0.0543975830078125,-1.387115478515625,-0.107666015625
1665946115483485700,6.655485595703125,0.0839996337890625,-1.38531494140625,-0.0500640869140625
1665946115493567700,6.665567626953125,0.1527099609375,-1.2860870361328125,0.0158843994140625
1665946115503648800,6.675648681640625,0.1143646240234375,-1.2254486083984375,-0.03802490234375
1665946115513730800,6.685730712890625,0.04412841796875,-1.1937408447265625,-0.065673828125
1665946115523811800,6.695811767578125,0.0211181640625,-1.133758544921875,-0.070556640625
1665946115533892900,6.705892822265625,0.0738677978515625,-1.02117919921875,-0.048248291015625
1665946115543975000,6.715974853515625,0.1195068359375,-0.8831329345703125,-0.03216552734375
1665946115554055700,6.7260556640625,0.0815277099609375,-0.8469085693359375,-0.024749755859375
1665946115564137700,6.7361376953125,-0.036834716796875,-1.0583343505859375,-0.017974853515625
1665946115574218800,6.74621875,-0.084930419921875,-1.3784332275390625,0.016265869140625
1665946115584300800,6.75630078125,-0.0896453857421875,-1.5183868408203125,0.1104583740234375
1665946115594381800,6.7663818359375,-0.0405120849609375,-1.5447235107421875,0.1841278076171875
1665946115604463900,6.7764638671875,-0.00677490234375,-1.50091552734375,0.18829345703125
1665946115614545000,6.786544921875,-0.0204925537109375,-1.4213409423828125,0.115264892578125
1665946115624627000,6.796626953125,0.0440216064453125,-1.3531951904296875,0.003265380859375
1665946115634707700,6.806707763671875,0.0775146484375,-1.301910400390625,-0.1049652099609375
1665946115644789800,6.816789794921875,0.023162841796875,-1.23028564453125,-0.1870269775390625
1665946115654870800,6.826870849609375,-0.0506744384765625,-1.112060546875,-0.2332000732421875
1665946115664951800,6.836951904296875,-0.1068878173828125,-0.9532623291015625,-0.2253570556640625
1665946115675033900,6.847033935546875,-0.11993408203125,-0.8035888671875,-0.1937255859375
1665946115685115000,6.857114990234375,-0.100616455078125,-0.6959381103515625,-0.16064453125
1665946115695197000,6.867197021484375,-0.0748748779296875,-0.648681640625,-0.1158905029296875
1665946115705277700,6.877277587890625,-0.03961181640625,-0.6434478759765625,-0.0628814697265625
1665946115715359700,6.88735986328125,-0.005859375,-0.64990234375,-0.018646240234375
1665946115725440800,6.897440673828125,0.00823974609375,-0.65716552734375,0.00616455078125
1665946115735522800,6.907522705078125,-0.01336669921875,-0.651031494140625,0.0179595947265625
1665946115745603800,6.917603759765625,-0.043701171875,-0.6290283203125,-0.0002593994140625
1665946115755686000,6.927685791015625,-0.0899658203125,-0.623504638671875,-0.0164031982421875
1665946115765767000,6.937766845703125,-0.1640167236328125,-0.6147003173828125,-0.025360107421875
1665946115775849000,6.947848876953125,-0.22930908203125,-0.5835113525390625,-0.0623016357421875
1665946115785930000,6.957929931640625,-0.2772674560546875,-0.56988525390625,-0.08551025390625
1665946115796011800,6.96801171875,-0.32342529296875,-0.566986083984375,-0.09234619140625
1665946115806092800,6.9780927734375,-0.3744049072265625,-0.5660552978515625,-0.085357666015625
1665946115816173800,6.988173828125,-0.40069580078125,-0.559356689453125,-0.079345703125
1665946115826256000,6.998255859375,-0.3845062255859375,-0.5532073974609375,-0.078948974609375
1665946115836337000,7.0083369140625,-0.3694610595703125,-0.538055419921875,-0.0816497802734375
1665946115846419000,7.0184189453125,-0.391693115234375,-0.52264404296875,-0.0973358154296875
1665946115856500000,7.0285,-0.4282379150390625,-0.508544921875,-0.1257476806640625
1665946115866582000,7.03858203125,-0.4618682861328125,-0.516448974609375,-0.140380859375
1665946115876662800,7.048662841796875,-0.48638916015625,-0.54632568359375,-0.13531494140625
1665946115886744800,7.058744873046875,-0.509674072265625,-0.5738067626953125,-0.1694488525390625
1665946115896825900,7.068825927734375,-0.52166748046875,-0.6255340576171875,-0.2057647705078125
1665946115906908000,7.078907958984375,-0.5232696533203125,-0.715240478515625,-0.2257080078125
1665946115916989000,7.088989013671875,-0.507293701171875,-0.830718994140625,-0.2188873291015625
1665946115927071000,7.099071044921875,-0.507476806640625,-0.9822540283203125,-0.2186126708984375
1665946115937152000,7.109152099609375,-0.532470703125,-1.143463134765625,-0.267425537109375
1665946115947233800,7.11923388671875,-0.5803070068359375,-1.271636962890625,-0.35040283203125
1665946115957314800,7.129314697265625,-0.638580322265625,-1.32659912109375,-0.41845703125
1665946115967395800,7.139395751953125,-0.713714599609375,-1.317413330078125,-0.434783935546875
1665946115977478000,7.149477783203125,-0.75897216796875,-1.2185211181640625,-0.3773651123046875
1665946115987559000,7.159558837890625,-0.764617919921875,-1.063018798828125,-0.3216705322265625
1665946115997641000,7.169640869140625,-0.7232208251953125,-0.985809326171875,-0.26446533203125
1665946116007722000,7.179721923828125,-0.6740264892578125,-1.109130859375,-0.250030517578125
1665946116017804000,7.189803955078125,-0.568511962890625,-1.347412109375,-0.3862457275390625
1665946116027884800,7.199884765625,-0.4288330078125,-1.546722412109375,-0.551605224609375
1665946116037966800,7.209966796875,-0.293121337890625,-1.5572509765625,-0.6446685791015625
1665946116048047900,7.2200478515625,-0.2375946044921875,-1.3482666015625,-0.56463623046875
1665946116058129700,7.230129638671875,-0.135406494140625,-0.997161865234375,-0.2892608642578125
1665946116068211000,7.2402109375,0.0103759765625,-0.698211669921875,-0.027008056640625
1665946116078292700,7.250292724609375,0.0718536376953125,-0.5887603759765625,0.145477294921875
1665946116088374000,7.2603740234375,0.026885986328125,-0.6001739501953125,0.2823944091796875
1665946116098455800,7.270455810546875,-0.1004486083984375,-0.58587646484375,0.3328094482421875
1665946116108536800,7.280536865234375,-0.336151123046875,-0.5704345703125,0.3657684326171875
1665946116118618600,7.29061865234375,-0.468109130859375,-0.70977783203125,0.2383575439453125
1665946116128700000,7.300699951171875,-0.37847900390625,-0.89617919921875,0.0171051025390625
1665946116138781700,7.31078173828125,-0.1045684814453125,-1.0630645751953125,-0.1207275390625
1665946116148862700,7.32086279296875,0.157073974609375,-1.1914825439453125,-0.2584686279296875
1665946116158944000,7.330944091796875,0.391998291015625,-1.2231597900390625,-0.3797607421875
1665946116169025800,7.34102587890625,0.5439453125,-1.180633544921875,-0.500213623046875
1665946116179106800,7.35110693359375,0.5445556640625,-1.1046905517578125,-0.532928466796875
1665946116189188600,7.361188720703125,0.3598785400390625,-1.0296783447265625,-0.4923095703125
1665946116199270000,7.371269775390625,0.0879058837890625,-0.9590301513671875,-0.4167327880859375
1665946116209351700,7.3813515625,-0.0875701904296875,-0.8960418701171875,-0.334716796875
1665946116219432700,7.3914326171875,-0.1684722900390625,-0.8612213134765625,-0.235504150390625
1665946116229514800,7.4015146484375,-0.1880340576171875,-0.8615875244140625,-0.1553497314453125
1665946116239595800,7.411595703125,-0.186676025390625,-0.8950347900390625,-0.098358154296875
1665946116249677800,7.421677734375,-0.1711273193359375,-0.944671630859375,-0.0765228271484375
1665946116259758600,7.431758544921875,-0.1129608154296875,-1.0123138427734375,-0.0717926025390625
1665946116269840600,7.441840576171875,-0.025238037109375,-1.064117431640625,-0.0720672607421875
1665946116279921700,7.451921630859375,0.049530029296875,-1.0227508544921875,-0.1478729248046875
1665946116290003700,7.462003662109375,0.078948974609375,-0.9468231201171875,-0.2109527587890625
1665946116300084700,7.472084716796875,0.035186767578125,-0.9019622802734375,-0.195281982421875
1665946116310165800,7.482165771484375,-0.0146331787109375,-0.8489532470703125,-0.1981048583984375
1665946116320247800,7.492247802734375,-0.0320281982421875,-0.8036651611328125,-0.2200469970703125
1665946116330328600,7.50232861328125,-0.037811279296875,-0.82147216796875,-0.2137298583984375
1665946133136776000,24.30877587890625,-0.8326873779296875,-0.615875244140625,-0.0959930419921875
1665946133146857000,24.31885693359375,-0.85546875,-0.5864105224609375,-0.11431884765625
1665946133156937700,24.328937744140624,-0.8376312255859375,-0.6084747314453125,-0.12921142578125
1665946133167019000,24.33901904296875,-0.8303680419921875,-0.62445068359375,-0.1237030029296875
1665946133177100000,24.34910009765625,-0.8191680908203125,-0.611053466796875,-0.10443115234375
1665946133187181000,24.35918115234375,-0.80267333984375,-0.607666015625,-0.0861053466796875
1665946133197263000,24.36926318359375,-0.789031982421875,-0.5999603271484375,-0.059417724609375
1665946133207343900,24.37934375,-0.792816162109375,-0.5960693359375,-0.0379180908203125
1665946133217425000,24.3894248046875,-0.824493408203125,-0.5695953369140625,-0.01617431640625
1665946133227506000,24.399505859375,-0.8209228515625,-0.53375244140625,0.021453857421875
1665946133237587000,24.4095869140625,-0.7900543212890625,-0.5567626953125,0.029083251953125
1665946133247668000,24.41966796875,-0.78765869140625,-0.594146728515625,0.003570556640625
1665946133257748700,24.429748779296876,-0.779571533203125,-0.61651611328125,-0.02703857421875
1665946133267830000,24.439830078125,-0.761444091796875,-0.61724853515625,-0.0537261962890625
1665946133277911000,24.4499111328125,-0.76116943359375,-0.60015869140625,-0.0652313232421875
1665946133287992000,24.459991943359373,-0.78045654296875,-0.587188720703125,-0.06146240234375
1665946133298072800,24.47007275390625,-0.8080596923828125,-0.57769775390625,-0.0611114501953125
1665946133308155000,24.48015478515625,-0.83978271484375,-0.5810394287109375,-0.0619049072265625
1665946133318236000,24.49023583984375,-0.848602294921875,-0.5867919921875,-0.0582733154296875
1665946133328317000,24.50031689453125,-0.8419342041015625,-0.584197998046875,-0.056121826171875
1665946133338398000,24.51039794921875,-0.838409423828125,-0.5867919921875,-0.0626220703125
1665946133348479000,24.52047900390625,-0.83837890625,-0.587249755859375,-0.0718231201171875
1665946133358559700,24.530559814453124,-0.8431549072265625,-0.5724029541015625,-0.0688323974609375
1665946133368641000,24.54064111328125,-0.8519744873046875,-0.5700836181640625,-0.057708740234375
1665946133378722000,24.55072216796875,-0.8621673583984375,-0.5786590576171875,-0.0467987060546875
1665946133388803000,24.560802978515625,-0.864166259765625,-0.5890960693359375,-0.0402374267578125
1665946133398885000,24.570885009765625,-0.855682373046875,-0.59991455078125,-0.034423828125
1665946133408966000,24.5809658203125,-0.8459930419921875,-0.6038055419921875,-0.0354461669921875
1665946133419047000,24.591046875,-0.8410186767578125,-0.6037139892578125,-0.0386199951171875
1665946133429128000,24.6011279296875,-0.8266143798828125,-0.5940399169921875,-0.03619384765625
1665946133439209000,24.611208984375,-0.787109375,-0.6365509033203125,0.0036773681640625
1665946133449290200,24.621290283203123,-0.7975616455078125,-0.6541748046875,0.014129638671875
1665946133459371300,24.631371337890624,-0.8200836181640625,-0.620269775390625,-0.0145263671875
1665946133469452000,24.6414521484375,-0.7946319580078125,-0.5894012451171875,-0.0265655517578125
1665946133479533300,24.651533203125,-0.7661285400390625,-0.5738372802734375,-0.0341033935546875
1665946133489614300,24.6616142578125,-0.7620391845703125,-0.573028564453125,-0.0450439453125
1665946133499696000,24.671696044921877,-0.7680511474609375,-0.5927276611328125,-0.0534820556640625
1665946133509777400,24.68177734375,-0.7653350830078125,-0.607513427734375,-0.052734375
1665946133519858400,24.6918583984375,-0.7575836181640625,-0.5914154052734375,-0.03985595703125
1665946133529939200,24.701939208984374,-0.7670745849609375,-0.575714111328125,-0.046417236328125
1665946133540020200,24.712020263671874,-0.796539306640625,-0.5756988525390625,-0.100006103515625
1665946133550101200,24.722101318359375,-0.8447113037109375,-0.5840606689453125,-0.2176055908203125
1665946133560182300,24.732182373046875,-0.8731689453125,-0.6096343994140625,-0.2706451416015625
1665946133570263000,24.742262939453123,-0.86553955078125,-0.6263427734375,-0.2515411376953125
1665946133580344300,24.75234423828125,-0.8332672119140625,-0.623931884765625,-0.2032928466796875
1665946133590426000,24.762426025390624,-0.8117828369140625,-0.600677490234375,-0.1194305419921875
1665946133600507100,24.772507080078125,-0.80914306640625,-0.569366455078125,-0.0498809814453125
1665946133610588400,24.78258837890625,-0.79931640625,-0.5458221435546875,-0.0100860595703125
1665946133620669400,24.79266943359375,-0.8015289306640625,-0.5453643798828125,-0.00030517578125
1665946133630750200,24.802750244140626,-0.815185546875,-0.5648193359375,0.0039520263671875
1665946133640831200,24.812831298828126,-0.8218841552734375,-0.5858612060546875,-0.003875732421875
1665946133650912300,24.822912353515626,-0.8219757080078125,-0.579864501953125,-0.0202178955078125
1665946133660993300,24.8329931640625,-0.82373046875,-0.5836334228515625,-0.050018310546875
1665946133671074000,24.843073974609375,-0.806060791015625,-0.6015472412109375,-0.0660552978515625
1665946133681156000,24.853156005859375,-0.7900238037109375,-0.6133270263671875,-0.0640716552734375
1665946133691237000,24.863237060546876,-0.7826995849609375,-0.6087493896484375,-0.0489501953125
1665946133701318100,24.873318115234376,-0.799896240234375,-0.5900115966796875,-0.0258636474609375
1665946133711399400,24.8833994140625,-0.8299407958984375,-0.5875091552734375,-0.0120697021484375
1665946133721480400,24.89348046875,-0.840087890625,-0.5893096923828125,-0.0074310302734375
1665946133731561200,24.903561279296873,-0.8370513916015625,-0.5926971435546875,-0.0219268798828125
1665946133741642200,24.913642333984374,-0.822540283203125,-0.5933380126953125,-0.0330047607421875
1665946133751724300,24.923724365234374,-0.813262939453125,-0.5911865234375,-0.0362396240234375
1665946133761805300,24.933805419921875,-0.808074951171875,-0.5778045654296875,-0.0370025634765625
1665946133771886300,24.94388623046875,-0.807586669921875,-0.5668182373046875,-0.0334625244140625
1665946133781967000,24.953967041015623,-0.8126678466796875,-0.56500244140625,-0.0281524658203125
1665946133792048000,24.964048095703124,-0.817474365234375,-0.5720672607421875,-0.02288818359375
1665946133802129200,24.974129150390624,-0.8228912353515625,-0.5807037353515625,-0.0183563232421875
1665946133812210400,24.98421044921875,-0.8348388671875,-0.5889129638671875,-0.0162811279296875
1665946133822291500,24.99429150390625,-0.8415679931640625,-0.5906982421875,-0.022186279296875
1665946133832373200,25.004373291015625,-0.8453369140625,-0.580596923828125,-0.033416748046875
1665946133842454300,25.014454345703125,-0.84918212890625,-0.5665435791015625,-0.03045654296875
1665946133852535300,25.024535400390626,-0.8511810302734375,-0.5615081787109375,-0.0146331787109375
1665946133862616300,25.0346162109375,-0.8444976806640625,-0.5570831298828125,0.00067138671875
1665946133872697300,25.044697265625,-0.8385009765625,-0.557464599609375,0.0040130615234375
1665946133882778000,25.054778076171875,-0.830535888671875,-0.5631103515625,-0.0009765625
1665946133892859100,25.064859130859375,-0.8249053955078125,-0.568267822265625,-0.0105743408203125
1665946133902940200,25.074940185546875,-0.8208465576171875,-0.5699462890625,-0.0176849365234375
1665946133913022200,25.085022216796876,-0.8214263916015625,-0.5726470947265625,-0.020172119140625
1665946133923103200,25.095103271484376,-0.826995849609375,-0.5761260986328125,-0.0153961181640625
1665946133933184300,25.105184326171877,-0.8358612060546875,-0.572509765625,-0.00457763671875
1665946133943265300,25.115265380859373,-0.8497161865234375,-0.5697479248046875,-0.00299072265625
1665946133953346300,25.12534619140625,-0.848297119140625,-0.5714263916015625,-0.0049285888671875
1665946133963427300,25.13542724609375,-0.8329925537109375,-0.5731201171875,-0.0012664794921875
1665946133973508400,25.14550830078125,-0.81500244140625,-0.57098388671875,-0.005157470703125
1665946133983590400,25.15559033203125,-0.8099822998046875,-0.5786895751953125,-0.0193023681640625
1665946133993671200,25.165671142578127,-0.8157958984375,-0.58026123046875,-0.0233154296875
1665946134003752200,25.175752197265624,-0.818878173828125,-0.5754547119140625,-0.018463134765625
1665946134013833200,25.185833251953124,-0.8255767822265625,-0.5803680419921875,-0.016754150390625
1665946134023914200,25.195914306640624,-0.8273468017578125,-0.5870513916015625,-0.0081024169921875
1665946134033995300,25.205995361328124,-0.8363189697265625,-0.5902252197265625,0.0026397705078125
1665946134044077000,25.2160771484375,-0.8473358154296875,-0.58251953125,0.00469970703125
1665946134054158300,25.226158447265625,-0.844970703125,-0.5782470703125,-0.0064544677734375
1665946134064239400,25.2362392578125,-0.83502197265625,-0.580169677734375,-0.0163116455078125
1665946134074320400,25.2463203125,-0.8191986083984375,-0.57440185546875,-0.017822265625
1665946134084401400,25.2564013671875,-0.8060150146484375,-0.5729217529296875,-0.01763916015625
1665946134094482200,25.266482177734375,-0.805694580078125,-0.578948974609375,-0.0099639892578125
1665946134104563200,25.276563232421875,-0.8103790283203125,-0.58856201171875,0.0043487548828125
1665946134114645200,25.286645263671875,-0.8144989013671875,-0.5899810791015625,0.0135650634765625
1665946134124726300,25.296726318359376,-0.8196258544921875,-0.578826904296875,0.008636474609375
1665946134134807300,25.306807373046876,-0.821868896484375,-0.5714263916015625,0.001678466796875
1665946134144888000,25.31688818359375,-0.8270416259765625,-0.575897216796875,0.0002899169921875
1665946134154969000,25.326968994140625,-0.823822021484375,-0.5857086181640625,0.00042724609375
1665946134165050400,25.33705029296875,-0.8040771484375,-0.5887451171875,-0.000732421875
1665946134175132200,25.347132080078126,-0.7987518310546875,-0.585693359375,-0.0045623779296875
1665946134185213400,25.35721337890625,-0.8130035400390625,-0.5784912109375,-0.007843017578125
1665946134195294200,25.367294189453126,-0.818634033203125,-0.574951171875,-0.0082855224609375
1665946134205375200,25.377375244140627,-0.8120269775390625,-0.5768585205078125,-0.0101318359375
1665946134215456300,25.387456298828123,-0.80987548828125,-0.5820465087890625,-0.0087890625
1665946134225537300,25.397537353515624,-0.8118896484375,-0.5832061767578125,-0.0020294189453125
1665946134235619300,25.407619384765624,-0.8098602294921875,-0.5845794677734375,0.0037384033203125
1665946134245700400,25.417700439453125,-0.8101806640625,-0.585662841796875,0.0052490234375
1665946134255781000,25.427781005859377,-0.81768798828125,-0.5846405029296875,-0.0009002685546875
1665946134265862100,25.437862060546873,-0.8251800537109375,-0.5830230712890625,-0.00775146484375
1665946134275943200,25.447943115234374,-0.8310394287109375,-0.58447265625,-0.0062408447265625
1665946134286024400,25.4580244140625,-0.821197509765625,-0.5847625732421875,-0.0080108642578125
1665946134296106200,25.468106201171874,-0.804840087890625,-0.582672119140625,-0.006927490234375
1665946134306187300,25.478187255859375,-0.7985076904296875,-0.58709716796875,0.003692626953125
1665946134316268300,25.488268310546875,-0.769287109375,-0.581298828125,-0.0020751953125
1665946134326349300,25.498349365234375,-0.752349853515625,-0.545501708984375,-0.001068115234375
1665946134336430300,25.508430419921876,-0.8556365966796875,-0.563018798828125,0.023712158203125
1665946134346512400,25.518512451171876,-0.8564300537109375,-0.599761962890625,0.025177001953125
1665946134356593400,25.528593505859376,-0.8166961669921875,-0.6175384521484375,0.0051727294921875
1665946134366674200,25.538674072265625,-0.8229217529296875,-0.6051177978515625,0.0018768310546875
1665946134376755200,25.548755126953125,-0.8270721435546875,-0.59918212890625,-0.000274658203125
1665946134386836200,25.558836181640626,-0.820831298828125,-0.58734130859375,-0.0023040771484375
1665946134396917200,25.568917236328126,-0.82696533203125,-0.5699920654296875,-0.003570556640625
1665946134406999300,25.578999267578126,-0.822845458984375,-0.5605621337890625,0.001861572265625
1665946134417080000,25.589080078125,-0.81109619140625,-0.560821533203125,0.0149993896484375
