time,seconds_elapsed,z,y,x
1665946108842407000,0.014406982421875,-0.012348544783890247,-0.008712797425687313,0.02556794509291649
1665946108852488000,0.024488037109375,-0.023005450144410133,-0.0043806335888803005,0.020186495035886765
1665946108862569000,0.03456884765625,-0.03098880872130394,0.002650644164532423,0.01780110038816929
1665946108872650800,0.044650634765625,-0.0342855341732502,0.009472863748669624,0.008686698973178864
1665946108882732000,0.05473193359375,-0.035174500197172165,0.007505054119974375,0.0023433153983205557
1665946108892813000,0.06481298828125,-0.03711221367120743,0.0027182884514331818,0.0011550129856914282
1665946108902894000,0.07489404296875,-0.039322905242443085,0.00044474788592197,0.011322163045406342
1665946108912976100,0.08497607421875,-0.03491590544581413,-0.003020290983840823,0.016222113743424416
1665946108923057000,0.095056884765625,-0.036853089928627014,-0.003953728824853897,0.017915084958076477
1665946108933138000,0.105137939453125,-0.03918655216693878,0.002520149340853095,0.022651782259345055
1665946108943219000,0.115218994140625,-0.04214239493012428,0.004802212119102478,0.018931878730654716
1665946108953301000,0.125301025390625,-0.04515336453914642,0.010781807824969292,0.011154916137456894
1665946108963382000,0.135382080078125,-0.04607534781098366,0.009429721161723137,0.010696319863200188
1665946108973462800,0.145462890625,-0.04033064469695091,0.009836385026574135,0.016532637178897858
1665946108983543800,0.155543701171875,-0.03815990313887596,0.017889251932501793,0.020490361377596855
1665946108993625900,0.1656259765625,-0.03528076037764549,0.015669241547584534,0.02057398483157158
1665946109003707000,0.175706787109375,-0.030491596087813377,0.009125853888690472,0.021152956411242485
1665946109013788000,0.185787841796875,-0.025767948478460312,0.008103732950985432,0.024269387125968933
1665946109023869000,0.195868896484375,-0.029675336554646492,0.009152485989034176,0.019148927181959152
1665946109033951000,0.205950927734375,-0.023311980068683624,0.008007326163351536,0.02473650500178337
1665946109044031700,0.21603173828125,-0.021159080788493156,0.007128483150154352,0.028363464400172234
1665946109054113000,0.226113037109375,-0.016349945217370987,0.0028748824261128902,0.029735524207353592
1665946109064194000,0.236194091796875,-0.01840750314295292,-0.009092031978070736,0.02948412299156189
1665946109074276000,0.246276123046875,-0.01230273861438036,-0.019167035818099976,0.0363558754324913
1665946109084357000,0.256357177734375,-0.012627910822629929,-0.028503812849521637,0.034088995307683945
1665946109094438000,0.26643798828125,-0.017733190208673477,-0.02822098508477211,0.030858846381306648
1665946109104519000,0.276518798828125,-0.032458607107400894,-0.022366026416420937,0.020121779292821884
1665946109114601000,0.28660107421875,-0.05540919676423073,-0.034567829221487045,0.014183729887008667
1665946109124682000,0.296681884765625,-0.04957474395632744,-0.007511445786803961,0.005397961009293795
1665946109134763000,0.306762939453125,-0.02575463242828846,-0.012537629343569279,-0.0073567163199186325
1665946109144843800,0.31684375,-0.021047761663794518,0.002341717481613159,0.033852238208055496
1665946109154925800,0.32692578125,0.017836520448327065,0.10897894948720932,0.08024690300226212
1665946109165006800,0.3370068359375,-0.00749093946069479,0.07476744800806046,0.027419639751315117
1665946109175087900,0.347087890625,-0.0645395815372467,-0.06401386857032776,-0.004885036498308182
1665946109185169000,0.3571689453125,-0.10002274066209793,-0.06741552799940109,-0.01852548122406006
1665946109195251000,0.3672509765625,-0.04524391144514084,-0.09437496960163116,-0.05982418358325958
1665946109205332000,0.37733203125,-0.07726549357175827,-0.14292679727077484,-0.05271860584616661
1665946109215412700,0.387412841796875,-0.05639376863837242,-0.16527551412582397,-0.05859646946191788
1665946109225494000,0.397493896484375,-0.038128212094306946,-0.19870616495609283,-0.06507354229688644
1665946109235575800,0.407575927734375,-0.05138782411813736,-0.22669360041618347,-0.06382451951503754
1665946109245657000,0.417656982421875,-0.07973158359527588,-0.2242906242609024,-0.06479231268167496
1665946109255738000,0.427738037109375,-0.08116462826728821,-0.1632528454065323,-0.06090649217367172
1665946109265819000,0.43781884765625,-0.10355062782764435,-0.06841607391834259,-0.06882726401090622
1665946109275901000,0.44790087890625,-0.12438986450433731,-0.04898938164114952,-0.10244807600975037
1665946109285982000,0.45798193359375,-0.1275574266910553,-0.0379636287689209,-0.11508531123399734
1665946109296063000,0.46806298828125,-0.22107192873954773,-0.16244377195835114,0.01284415926784277
1665946109306144000,0.47814404296875,-0.24494557082653046,-0.35524997115135193,0.1688164472579956
1665946109316226000,0.48822607421875,-0.2504364848136902,-0.44429221749305725,0.21650327742099762
1665946109326306800,0.498306884765625,-0.2748262286186218,-0.3901195526123047,0.15927940607070923
1665946109336387800,0.508387939453125,-0.3096787631511688,-0.40150588750839233,0.138768270611763
1665946109346468900,0.51846875,-0.33169564604759216,-0.36746668815612793,0.12967491149902344
1665946109356551000,0.528551025390625,-0.2956007719039917,-0.26212161779403687,0.12976838648319244
1665946109366632000,0.5386318359375,-0.24186909198760986,-0.23873721063137054,0.15007339417934418
1665946109376713000,0.548712890625,-0.1920221745967865,-0.23030857741832733,0.1887960135936737
1665946109386793700,0.558793701171875,-0.16113775968551636,-0.20911939442157745,0.2424485981464386
1665946109396875800,0.568875732421875,-0.15788443386554718,-0.23811589181423187,0.2934313416481018
1665946109406956800,0.578956787109375,-0.1792762726545334,-0.17540724575519562,0.3103402853012085
1665946109417038000,0.5890380859375,-0.17807945609092712,-0.08884970843791962,0.2903546094894409
1665946109427119000,0.599119140625,-0.10268376767635345,-0.12089419364929199,0.2654452621936798
1665946109437201000,0.609200927734375,-0.006487193983048201,-0.26929566264152527,0.3319909870624542
1665946109447282000,0.619281982421875,0.06515556573867798,-0.3185122013092041,0.40250855684280396
1665946109457363000,0.629363037109375,0.08808751404285431,-0.2562576234340668,0.41668376326560974
1665946109467445000,0.639445068359375,0.09269371628761292,-0.21239136159420013,0.365627259016037
1665946109477526000,0.649526123046875,0.06932075321674347,-0.10757625848054886,0.3106854259967804
1665946109487607000,0.65960693359375,0.044430315494537354,-0.05329065024852753,0.26005446910858154
1665946109497687800,0.669687744140625,0.04126860946416855,-0.07642766088247299,0.19004423916339874
1665946109507769900,0.679769775390625,0.023266706615686417,-0.10263796150684357,0.09688739478588104
1665946109517851000,0.689850830078125,-0.010602843016386032,-0.005418733693659306,0.04030987247824669
1665946109527932000,0.699931884765625,-0.04219965264201164,-0.03732340410351753,0.08299422264099121
1665946109538013000,0.710012939453125,-0.03808826208114624,0.006523679476231337,0.05862549692392349
1665946109548095000,0.720094970703125,-0.03195660188794136,-0.012011655606329441,0.050159573554992676
1665946109558176000,0.730176025390625,-0.03702752664685249,0.007229683455079794,0.045217279344797134
1665946109568256800,0.7402568359375,-0.037037644535303116,0.020012857392430305,0.011857991106808186
1665946109578337800,0.750337890625,-0.032765403389930725,0.015691878274083138,-0.018869562074542046
1665946109588419800,0.760419921875,-0.024098411202430725,-0.001478587044402957,-0.0036477316170930862
1665946109598500900,0.7705009765625,-0.017355553805828094,-0.021559353917837143,0.01661279797554016
1665946109608582100,0.78058203125,-0.016282299533486366,-0.016266055405139923,0.0014226606581360102
1665946109618663000,0.790662841796875,-0.011510182172060013,-0.006268548313528299,-0.029827937483787537
1665946109628745000,0.800744873046875,-0.014124607667326927,0.00284958234988153,-0.04561195895075798
1665946109638826000,0.810825927734375,-0.02339879982173443,0.010070743970572948,-0.044618334621191025
1665946109648907000,0.820906982421875,-0.02544650435447693,0.0018216022290289402,-0.025407088920474052
1665946109658988000,0.830988037109375,-0.02497112937271595,0.0013912353897467256,0.0015006912872195244
1665946109669070000,0.841070068359375,-0.022844063118100166,-0.00177952426020056,0.004570517223328352
1665946109679150800,0.85115087890625,-0.01817634142935276,0.0006554039428010583,-0.0021547635551542044
1665946109689232000,0.86123193359375,-0.02605690062046051,0.008045409806072712,-0.0018042916199192405
1665946109699313000,0.87131298828125,-0.025373000651597977,0.0032317459117621183,0.009606820531189442
1665946109709395000,0.88139501953125,-0.027639349922537804,0.002889263443648815,0.016708139330148697
1665946109719476000,0.89147607421875,-0.026279540732502937,0.006598514039069414,0.01968315802514553
1665946109729557000,0.901556884765625,-0.01883920095860958,0.007780691608786583,0.02340945228934288
1665946109739637800,0.9116376953125,-0.00768801337108016,0.0016908409306779504,0.023674702271819115
1665946109749719800,0.9217197265625,-0.006878412328660488,-0.001859419047832489,0.010318417102098465
1665946109759800800,0.93180078125,-0.024566862732172012,0.0002282329078298062,0.0051742554642260075
1665946109769881900,0.9418818359375,-0.031073497608304024,0.01173628494143486,0.008889098651707172
1665946109779964000,0.9519638671875,-0.057205766439437866,0.034875690937042236,0.05320090427994728
1665946109790045000,0.962044921875,-0.08257583528757095,0.06890662759542465,0.11368342489004135
1665946109800126000,0.9721259765625,-0.10759437084197998,0.09566421061754227,0.144800066947937
1665946109810207000,0.98220703125,-0.09718061238527298,0.07798667997121811,0.15427584946155548
1665946109820289000,0.9922890625,-0.08537454903125763,0.03806962072849274,0.10047148168087006
1665946109830370000,1.0023701171875,-0.09038795530796051,0.12684130668640137,0.07698719203472137
1665946109840451000,1.012451171875,-0.11315185576677322,0.1951463222503662,0.06899184733629227
1665946109850531800,1.02253173828125,-0.13406379520893097,0.23357146978378296,0.05300382897257805
1665946109860614000,1.03261376953125,-0.14233051240444183,0.20328308641910553,0.0072989254258573055
1665946109870695000,1.04269482421875,-0.19714422523975372,0.24654586613178253,-0.03145726025104523
1665946109880776000,1.05277587890625,-0.338096559047699,0.36915674805641174,0.030131537467241287
1665946109890857000,1.06285693359375,-0.4036382734775543,0.376313716173172,0.20352835953235626
1665946109900939000,1.07293896484375,-0.35639408230781555,0.3809071481227875,0.26703941822052
1665946109911020000,1.08302001953125,-0.3427829146385193,0.3478623628616333,0.31080660223960876
1665946109921100800,1.093100830078125,-0.37955158948898315,0.2279846966266632,0.392229288816452
1665946109931181800,1.103181884765625,-0.39200931787490845,0.13308587670326233,0.5726981163024902
1665946109941264000,1.113263916015625,-0.2736131548881531,-0.004262921866029501,0.8285738825798035
1665946109951345000,1.123344970703125,-0.17817851901054382,-0.10396555066108704,1.0191807746887207
1665946109961426000,1.133426025390625,-0.1370430737733841,0.0996304526925087,0.8909602761268616
1665946109971508000,1.143508056640625,0.07698798924684525,0.07852916419506073,0.7785053849220276
1665946109981588700,1.153588623046875,0.3200616240501404,-0.23900006711483002,0.8465174436569214
1665946109991670000,1.163669921875,0.38046079874038696,-0.7401713132858276,0.5063404440879822
1665946110001751000,1.1737509765625,0.3765573799610138,-1.4512035846710205,0.13882926106452942
1665946110011832800,1.183832763671875,0.47577187418937683,-1.2106295824050903,0.3753216862678528
1665946110021914000,1.1939140625,0.5723471641540527,-0.4751220643520355,0.8032042980194092
1665946110031995000,1.203994873046875,0.7077145576477051,-0.34724104404449463,0.9776964783668518
1665946110042076000,1.214075927734375,0.9076891541481018,-0.7376428842544556,1.0451269149780273
1665946110052158000,1.224157958984375,1.117914080619812,-0.9494946599006653,1.2375890016555786
1665946110062239000,1.234239013671875,1.308740496635437,-0.8623190522193909,1.487302541732788
1665946110072320000,1.244320068359375,1.4367899894714355,-0.7431865334510803,1.6467339992523193
1665946110082401000,1.254401123046875,1.0920054912567139,-0.8912353515625,1.6576379537582397
1665946110092483000,1.264483154296875,0.5479946732521057,-0.5262510180473328,1.6173793077468872
1665946110102563800,1.274563720703125,0.07606787234544754,-0.30705076456069946,1.578927755355835
1665946110112644900,1.284644775390625,-0.018341723829507828,-0.1644512563943863,1.5762553215026855
1665946110122727000,1.294726806640625,-0.01209581084549427,-0.07226620614528656,1.598515272140503
1665946110132808000,1.304807861328125,0.030116090551018715,-0.0035952674224972725,1.5223678350448608
1665946110142889000,1.314888916015625,0.0943792313337326,0.10688011348247528,1.4089863300323486
1665946110152969700,1.3249697265625,0.12106117606163025,0.09414087980985641,1.2780941724777222
1665946110163051800,1.3350517578125,0.10955499112606049,-0.15708602964878082,1.1002674102783203
1665946110173132800,1.3451328125,0.022537000477313995,-0.3060464859008789,0.9074907898902893
1665946110183213800,1.3552138671875,-0.12480425089597702,-0.2741985321044922,0.7252306938171387
1665946110193295000,1.365295166015625,-0.23283325135707855,-0.05122324079275131,0.5762079358100891
1665946110203377000,1.375376953125,-0.2058924436569214,0.006485862657427788,0.41756394505500793
1665946110213458000,1.3854580078125,-0.05435538291931152,0.08019150793552399,0.29212239384651184
1665946110223539000,1.3955390625,0.12162230163812637,0.09899236261844635,0.18065179884433746
1665946110233621000,1.40562109375,0.21178123354911804,-0.004364122170954943,0.0836043506860733
1665946110243702000,1.415701904296875,0.21929852664470673,0.02659938670694828,-0.030959779396653175
1665946110253783000,1.425782958984375,0.1471705436706543,0.1775446981191635,-0.10064751654863358
1665946110263864000,1.435864013671875,0.062079884111881256,0.12544554471969604,-0.18599703907966614
1665946110273945900,1.44594580078125,-0.006700513418763876,0.13391971588134766,-0.22191455960273743
1665946110284027000,1.45602685546875,0.014595720916986465,0.20719259977340698,-0.19653037190437317
1665946110294108000,1.46610791015625,0.12976092100143433,0.3399317264556885,-0.08648961782455444
1665946110304189000,1.47618896484375,0.29020118713378906,0.5600776672363281,0.07022649049758911
1665946110314271000,1.48627099609375,0.47275105118751526,0.786918044090271,0.21972383558750153
1665946110324352000,1.49635205078125,0.6391589045524597,0.6009891629219055,0.3265821039676666
1665946110334432800,1.506432861328125,0.7331274747848511,0.127634659409523,0.4044811725616455
1665946110344514800,1.516514892578125,0.6276189088821411,-0.14418567717075348,0.3908013105392456
1665946110354595800,1.526595947265625,0.40812063217163086,-0.21592217683792114,0.22848643362522125
1665946110364676900,1.5366767578125,0.2160651832818985,-0.24961648881435394,0.21375729143619537
1665946110374758000,1.5467578125,0.09972899407148361,-0.23408839106559753,0.38160276412963867
1665946110384840000,1.55683984375,0.06183833256363869,0.041607096791267395,0.4639285206794739
1665946110394920700,1.566920654296875,0.15640930831432343,0.15675951540470123,0.4519727826118469
1665946110405002000,1.577001953125,0.2791022062301636,0.5488061308860779,0.3467499613761902
1665946110415083000,1.5870830078125,0.3211095929145813,0.8156574964523315,0.150257408618927
1665946110425164500,1.59716455078125,0.352254182100296,0.7759551405906677,-0.025021197274327278
1665946110435245600,1.60724560546875,0.41850510239601135,0.6316463947296143,-0.15755712985992432
1665946110445326600,1.61732666015625,0.5132904648780823,0.6332302093505859,-0.2890472412109375
1665946110455408600,1.62740869140625,0.5594577193260193,0.7447668313980103,-0.383260041475296
1665946110465489700,1.63748974609375,0.6556380391120911,0.8052278161048889,-0.48026221990585327
1665946110475570400,1.6475703125,0.7078263759613037,0.7950087189674377,-0.5328404903411865
1665946110485651500,1.6576513671875,0.7167837023735046,0.7588595151901245,-0.5713785290718079
1665946110495733500,1.6677333984375,0.7054681777954102,0.7752856016159058,-0.6310259103775024
1665946110505814500,1.677814453125,0.7270584106445312,0.8576017618179321,-0.7608757615089417
1665946110515895600,1.6878955078125,0.7264379262924194,0.8596066236495972,-0.8909211158752441
1665946110525977600,1.6979775390625,0.6637697219848633,0.8566814064979553,-1.020640254020691
1665946110536058400,1.708058349609375,0.5864730477333069,0.8494932651519775,-1.15788996219635
1665946110546139400,1.718139404296875,0.5504090785980225,0.7689440846443176,-1.2122557163238525
1665946110556220400,1.728220458984375,0.5005813241004944,0.7922986745834351,-1.170877456665039
1665946110566302500,1.738302490234375,0.5262709856033325,0.9170984029769897,-1.153322696685791
1665946110576383500,1.748383544921875,0.5748683214187622,0.9347330331802368,-1.09805166721344
1665946110586464500,1.758464599609375,0.5754095315933228,0.8037875294685364,-1.013692855834961
1665946110596545500,1.768545654296875,0.4693880081176758,0.7357658743858337,-0.864176332950592
1665946110606627600,1.778627685546875,0.418496310710907,0.580036997795105,-0.6980257034301758
1665946110616708600,1.78870849609375,0.49140167236328125,0.35836532711982727,-0.6027833223342896
1665946110626789600,1.79878955078125,0.5115360021591187,0.3695061504840851,-0.5676820874214172
1665946110636871700,1.80887158203125,0.4903430938720703,0.4217301905155182,-0.5748752951622009
1665946110646952400,1.818952392578125,0.445349782705307,0.358192503452301,-0.520708441734314
1665946110657033500,1.829033447265625,0.381768137216568,0.28568127751350403,-0.4393446147441864
1665946110667114500,1.839114501953125,0.3416726589202881,0.1858854442834854,-0.312467098236084
1665946110677196500,1.849196533203125,0.344561904668808,0.17948001623153687,-0.18957312405109406
1665946110687277600,1.859277587890625,0.37097781896591187,0.06506075710058212,-0.05969102680683136
1665946110697358600,1.869358642578125,0.3553341329097748,0.08172415941953659,-0.008344482630491257
1665946110707440600,1.879440673828125,0.3087133765220642,0.08921216428279877,0.0041398839093744755
1665946110717521400,1.889521484375,0.23845811188220978,0.04625670984387398,0.00001704423084447626
1665946110727602400,1.8996025390625,0.24131488800048828,-0.017588581889867783,0.014475611969828606
1665946110737683500,1.909683349609375,0.31273579597473145,0.02117692492902279,0.020251741632819176
1665946110747765500,1.919765625,0.32287871837615967,0.1300557404756546,-0.061401575803756714
1665946110757846500,1.929846435546875,0.3355042338371277,-0.036434706300497055,-0.109891876578331
1665946110767927300,1.93992724609375,0.26027074456214905,-0.14653803408145905,-0.19893333315849304
1665946110778009300,1.95000927734375,0.1730727106332779,-0.14702379703521729,-0.2577790915966034
1665946110788090400,1.96009033203125,0.13029222190380096,-0.07120200991630554,-0.30759111046791077
1665946110798171600,1.970171630859375,0.12093920260667801,-0.02171408385038376,-0.291363388299942
1665946110808252700,1.980252685546875,0.10849052667617798,-0.01702239364385605,-0.2521219849586487
1665946110818334500,1.99033447265625,0.07034074515104294,0.03880545124411583,-0.2443074733018875
1665946110828415500,2.00041552734375,0.06374195963144302,0.015205584466457367,-0.25051212310791016
1665946110838496500,2.01049658203125,0.09335657954216003,0.007065366487950087,-0.2721191346645355
1665946110848577500,2.02057763671875,0.07742714881896973,0.029333122074604034,-0.3159736692905426
1665946110858659600,2.03065966796875,0.06489857286214828,0.00998951680958271,-0.2922001779079437
1665946110868740600,2.04074072265625,0.04119563847780228,-0.11447305232286453,-0.220455139875412
1665946110878821600,2.050821533203125,-0.001970472978428006,-0.07333839684724808,-0.1722458004951477
1665946110888903700,2.060903564453125,-0.015796273946762085,-0.1123686209321022,-0.09710285067558289
1665946110898984400,2.070984375,-0.018267953768372536,-0.1023213118314743,-0.048288170248270035
1665946110909065500,2.0810654296875,0.007731689140200615,-0.08589253574609756,-0.021201426163315773
1665946110919146500,2.091146484375,0.027578631415963173,-0.093124620616436,-0.021738585084676743
1665946110929228500,2.101228515625,0.030818898230791092,-0.07222119718790054,-0.05435245484113693
1665946110939309600,2.1113095703125,0.044082507491111755,-0.2332654744386673,-0.035237882286310196
1665946110949390300,2.121390380859375,0.07862982898950577,-0.21020862460136414,-0.06953886151313782
1665946110959472400,2.131472412109375,0.042513638734817505,-0.046973101794719696,-0.09107744693756104
1665946110969553400,2.141553466796875,0.02574477717280388,-0.15911056101322174,-0.06453478336334229
1665946110979634400,2.151634521484375,0.02773788757622242,-0.2650657594203949,-0.041013214737176895
1665946110989715500,2.161715576171875,0.01161377876996994,-0.09767862409353256,-0.05946012958884239
1665946110999797500,2.171797607421875,0.035825639963150024,-0.09174643456935883,-0.046967241913080215
1665946111009878300,2.181878173828125,0.0661393404006958,-0.2545667588710785,-0.009897371754050255
1665946111019959600,2.19195947265625,0.09464874118566513,-0.2850128412246704,0.014518489129841328
1665946111030041300,2.202041259765625,0.09025692194700241,-0.02227254956960678,-0.03677612543106079
1665946111040122600,2.21212255859375,0.05782654881477356,0.021631259471178055,-0.039853405207395554
1665946111050203600,2.22220361328125,0.04897020757198334,-0.08479052037000656,0.0070254188030958176
1665946111060284700,2.23228466796875,0.015054050832986832,-0.11171001940965652,0.007863782346248627
1665946111070366700,2.24236669921875,0.059302471578121185,-0.03296301141381264,0.012618323788046837
1665946111080447500,2.252447509765625,0.08238781988620758,0.06052299961447716,0.007202519103884697
1665946111090528500,2.262528564453125,0.10021848231554031,-0.048529185354709625,-0.009520534425973892
1665946111100610600,2.272610595703125,0.049083124846220016,-0.05666647478938103,0.05023227632045746
1665946111110691600,2.282691650390625,0.04085688665509224,0.031070567667484283,0.02135402522981167
1665946111120772600,2.292772705078125,0.02467898093163967,0.06916868686676025,-0.006074936594814062
1665946111130854700,2.302854736328125,0.01332672405987978,0.03044632263481617,-0.008290153928101063
1665946111140935400,2.312935302734375,0.005029646214097738,-0.018753448501229286,-0.025243837386369705
1665946111151016400,2.323016357421875,-0.0005869606975466013,-0.045210354030132294,-0.039678703993558884
1665946111161097500,2.333097412109375,0.004035221878439188,-0.04939311742782593,-0.034683410078287125
1665946111171179500,2.343179443359375,0.0028642297256737947,-0.049671683460474014,-0.004987035412341356
1665946111181260500,2.353260498046875,0.007160174660384655,-0.0016492956783622503,0.028797825798392296
1665946111191341300,2.36334130859375,0.009300291538238525,0.052327919751405716,0.058038268238306046
1665946111201422300,2.37342236328125,0.008236890658736229,0.0668802335858345,0.07776323705911636
1665946111211504400,2.38350439453125,-0.014995194971561432,0.0392262302339077,0.07617279887199402
1665946111221585400,2.39358544921875,-0.04448198154568672,-0.04188433289527893,0.06907361000776291
1665946111231666700,2.403666748046875,-0.07408647984266281,-0.04729081690311432,0.025373533368110657
1665946111241748500,2.41374853515625,-0.09048302471637726,-0.053221143782138824,-0.0014450311427935958
1665946111251829500,2.42382958984375,-0.10909266769886017,-0.09343354403972626,0.01085770782083273
1665946111261910500,2.43391064453125,-0.17561763525009155,-0.13371305167675018,0.03446529805660248
1665946111271992300,2.443992431640625,-0.27948862314224243,-0.19181470572948456,0.07310456782579422
1665946111282073600,2.454073486328125,-0.3276335299015045,-0.21176950633525848,0.12338638305664062
1665946111292154600,2.464154541015625,-0.20511479675769806,-0.16049806773662567,0.1481921374797821
1665946111302235600,2.474235595703125,-0.07515813410282135,-0.03410337492823601,0.11148711293935776
1665946111312317700,2.484317626953125,-0.01985359936952591,0.04276690632104874,0.0392770990729332
1665946111322398500,2.4943984375,0.0011211908422410488,0.04478504881262779,-0.0254579558968544
1665946111332479500,2.5044794921875,-0.005356415640562773,0.03641499951481819,-0.08297025412321091
1665946111342561500,2.5145615234375,-0.014681207947432995,0.025710955262184143,-0.11096460372209549
1665946111352642600,2.524642578125,-0.029446838423609734,0.04057565703988075,-0.10710408538579941
1665946111362723600,2.5347236328125,-0.04523592069745064,0.0521731898188591,-0.08798125386238098
1665946111372804400,2.544804443359375,-0.05744731426239014,0.05227625370025635,-0.042395658791065216
1665946111382886400,2.554886474609375,-0.06500270217657089,0.027708593755960464,0.010456901974976063
1665946111392967400,2.564967529296875,-0.06581123918294907,0.011331217363476753,0.05555087700486183
1665946111403048400,2.57504833984375,-0.053474411368370056,0.010032393969595432,0.07448435574769974
1665946111413130500,2.585130615234375,-0.05282752960920334,0.038604650646448135,0.05573197081685066
1665946111423211000,2.5952109375,-0.05403207615017891,0.05112869665026665,0.026041720062494278
1665946111433292000,2.6052919921875,-0.04602581635117531,0.0562579445540905,-0.0005930859479121864
1665946111443374000,2.6153740234375,-0.03852662071585655,0.026509106159210205,-0.01569720357656479
1665946111453455000,2.625455078125,-0.027530694380402565,0.022420620545744896,-0.03275075554847717
1665946111463536000,2.6355361328125,-0.031026892364025116,0.007203850895166397,-0.04174158722162247
1665946111473617200,2.6456171875,-0.02876986190676689,0.00689199473708868,-0.046908386051654816
1665946111483699200,2.65569921875,-0.018332667648792267,0.024465661495923996,-0.043585292994976044
1665946111493780200,2.6657802734375,-0.01960592530667782,0.047211453318595886,-0.01979554258286953
1665946111503861200,2.675861328125,-0.031150195747613907,0.038478683680295944,-0.005318332463502884
1665946111513943300,2.685943359375,-0.04667296260595322,0.027105120941996574,0.009247826412320137
1665946111524024300,2.6960244140625,-0.06023510918021202,0.01317998394370079,0.025894181802868843
1665946111534105000,2.70610498046875,-0.07388594001531601,-0.014634602703154087,0.034868769347667694
1665946111544186000,2.71618603515625,-0.10103553533554077,-0.056166067719459534,0.02864575944840908
1665946111554268200,2.72626806640625,-0.13577806949615479,-0.11252095550298691,0.027484621852636337
1665946111564349200,2.73634912109375,-0.19104185700416565,-0.18715977668762207,0.028897428885102272
1665946111574430200,2.74643017578125,-0.274926096200943,-0.2616848647594452,0.025419339537620544
1665946111584512300,2.75651220703125,-0.38892456889152527,-0.3160319924354553,0.015535816550254822
1665946111594593000,2.766593017578125,-0.492608904838562,-0.35417646169662476,0.00820866134017706
1665946111604675000,2.776675048828125,-0.6105677485466003,-0.3607315719127655,-0.00035739620216190815
1665946111614756000,2.786756103515625,-0.7286502122879028,-0.4236295521259308,-0.017016800120472908
1665946111624837000,2.796837158203125,-0.8213407397270203,-0.4100642204284668,-0.07415492087602615
1665946111634918100,2.806918212890625,-0.8295296430587769,-0.7199901342391968,0.0057500312104821205
1665946111645000200,2.817000244140625,-0.8789536952972412,-0.9387720227241516,0.15697070956230164
1665946111655081000,2.8270810546875,-1.0252472162246704,-0.9011311531066895,0.20244471728801727
1665946111665162000,2.837161865234375,-1.2319974899291992,-0.7877153754234314,0.2804761230945587
1665946111675244000,2.847244140625,-1.4248353242874146,-0.7777950763702393,0.38943031430244446
1665946111685325000,2.857324951171875,-1.5510939359664917,-0.7566847801208496,0.5293533205986023
1665946111695406000,2.867406005859375,-1.6890337467193604,-0.7108072638511658,0.6988033652305603
1665946111705488100,2.877488037109375,-1.8571172952651978,-0.8397322297096252,0.8483640551567078
1665946111715569000,2.88756884765625,-2.090665817260742,-1.024604320526123,0.9159055948257446
1665946111725650200,2.897650146484375,-2.329050302505493,-1.187944769859314,0.9267680644989014
1665946111735731200,2.907731201171875,-2.522732734680176,-1.3380954265594482,0.9606602787971497
1665946111745813200,2.917813232421875,-2.5705158710479736,-1.450488805770874,0.9932802319526672
1665946111755894300,2.927894287109375,-2.419870138168335,-1.3712153434753418,0.9809314608573914
1665946111765975300,2.937975341796875,-2.16556715965271,-1.094688892364502,0.9182766079902649
1665946111776057300,2.948057373046875,-1.8778830766677856,-0.6985125541687012,0.8722017407417297
1665946111786138000,2.95813818359375,-1.6100531816482544,-0.18355891108512878,0.8350165486335754
1665946111796219100,2.96821923828125,-1.2598413228988647,0.5099095702171326,0.8433003425598145
1665946111806301200,2.97830126953125,-0.9035367965698242,0.9466264843940735,0.924920916557312
1665946111816382200,2.98838232421875,-0.5829886198043823,1.0386245250701904,0.9715419411659241
1665946111826463200,2.998463134765625,-0.2991640567779541,0.9354755282402039,0.9676409363746643
1665946111836544000,3.0085439453125,-0.042282477021217346,0.8372640013694763,0.916711688041687
1665946111846626000,3.0186259765625,0.16150127351284027,0.8022647500038147,0.8268103003501892
1665946111856707000,3.02870703125,0.3280591070652008,0.6980539560317993,0.6765497326850891
1665946111866788000,3.0387880859375,0.43082383275032043,0.5609365701675415,0.5073332786560059
1665946111876870100,3.0488701171875,0.560748815536499,0.9039836525917053,1.183367371559143
1665946111886951200,3.058951171875,0.5797232985496521,1.2051608562469482,1.245233416557312
1665946111897032000,3.069031982421875,0.5360831618309021,1.125236988067627,1.1195119619369507
1665946111907114000,3.079114013671875,0.5171440839767456,1.0599660873413086,1.0913612842559814
1665946111917195000,3.089195068359375,0.4583209753036499,1.0909186601638794,1.1123301982879639
1665946111927276000,3.099276123046875,0.36207032203674316,1.676963210105896,1.5327061414718628
1665946111937357300,3.109357421875,0.14535240828990936,1.528660535812378,1.6959593296051025
1665946111947439000,3.119439208984375,-0.08165039122104645,0.49377110600471497,0.993069052696228
1665946111957520100,3.12952001953125,-0.08667204529047012,-0.5014212727546692,-0.1844838261604309
1665946111967601200,3.13960107421875,-0.06724508106708527,-1.0134366750717163,-1.1573413610458374
1665946111977683000,3.149682861328125,-0.19151324033737183,-1.2744200229644775,-1.6661057472229004
1665946111987764200,3.15976416015625,-0.1586732715368271,-1.3907394409179688,-1.912400245666504
1665946111997845200,3.16984521484375,-0.24875308573246002,-1.2246003150939941,-1.884229302406311
1665946112007927300,3.17992724609375,-0.7592626810073853,-0.07574509084224701,-0.9404761791229248
1665946112018008300,3.19000830078125,-0.9324014782905579,-0.3398110866546631,-0.2809451222419739
1665946112028089000,3.200089111328125,-0.9894740581512451,0.011775699444115162,0.21740636229515076
1665946112038170000,3.210170166015625,-0.8639355897903442,0.7272009253501892,0.7660476565361023
1665946112048252200,3.220252197265625,-0.6450144052505493,1.2500050067901611,1.1245144605636597
1665946112058333200,3.230333251953125,-0.29335811734199524,1.1116409301757812,1.1968048810958862
1665946112068414200,3.240414306640625,0.04818297550082207,0.7275271415710449,0.9034494161605835
1665946112078496300,3.250496337890625,0.18323293328285217,0.2764686048030853,0.41180431842803955
1665946112088577000,3.260576904296875,0.14582191407680511,-0.1111917719244957,-0.11758601665496826
1665946112098658000,3.270657958984375,-0.007152185309678316,-0.412702351808548,-0.5695505738258362
1665946112108740000,3.280739990234375,-0.09827383607625961,-0.3857753872871399,-0.7934584617614746
1665946112118821000,3.290821044921875,-0.13004028797149658,-0.3800850212574005,-0.9064404368400574
1665946112128902100,3.300902099609375,-0.10174686461687088,-0.39026015996932983,-0.9127371907234192
1665946112138983200,3.310983154296875,0.020432304590940475,-0.31009021401405334,-0.8561793565750122
1665946112149065000,3.32106494140625,0.16816769540309906,-0.16350477933883667,-0.7746520638465881
1665946112159146000,3.33114599609375,0.29211682081222534,-0.006923153530806303,-0.6775787472724915
1665946112169227000,3.34122705078125,0.39080795645713806,0.08582409471273422,-0.5682322978973389
1665946112179309000,3.35130908203125,0.4712202548980713,0.12778672575950623,-0.4688500463962555
1665946112189390000,3.36139013671875,0.5198687314987183,0.12898780405521393,-0.37972813844680786
1665946112199471400,3.371471435546875,0.5388674736022949,0.13549257814884186,-0.3045977056026459
1665946112209553200,3.38155322265625,0.5012931823730469,0.1765606552362442,-0.21999627351760864
1665946112219634200,3.39163427734375,-0.19514046609401703,-0.4726061522960663,-0.8789864182472229
1665946112229715200,3.401715087890625,-1.1809625625610352,-0.0860762968659401,-1.1994078159332275
1665946112239797000,3.411796875,-0.5406389832496643,1.1888608932495117,-0.08996344357728958
1665946112249878300,3.421878173828125,-0.4140531122684479,0.9472573399543762,-0.24040594696998596
1665946112259959300,3.431959228515625,-0.219349667429924,0.7205855846405029,-0.40613898634910583
1665946112270041300,3.442041259765625,0.10511656850576401,0.11825979501008987,-0.952789843082428
1665946112280122000,3.4521220703125,0.29695630073547363,-0.22850534319877625,-1.7755582332611084
1665946112290203100,3.462203125,0.4634920358657837,0.44329142570495605,-2.415215253829956
1665946112300284200,3.4722841796875,0.6599249243736267,1.6369290351867676,-2.8230903148651123
1665946112310366200,3.4823662109375,0.9031663537025452,2.896796464920044,-2.5441794395446777
1665946112320447200,3.492447265625,0.9104964137077332,3.0235464572906494,-1.7146251201629639
1665946112330528000,3.502528076171875,0.32291361689567566,2.2167303562164307,-0.9667077660560608
1665946112340610000,3.512610107421875,0.2729732096195221,0.5227518677711487,0.4134565591812134
1665946112350691000,3.522691162109375,0.6304985880851746,-1.1087274551391602,1.21886146068573
1665946112360772000,3.532772216796875,0.7435724139213562,-1.6575927734375,1.3028466701507568
1665946112370854100,3.542854248046875,0.09232886135578156,-0.7852452993392944,0.9878844022750854
1665946112380935200,3.55293505859375,-1.5356183052062988,-0.28716012835502625,0.022524749860167503
1665946112391016200,3.56301611328125,-2.177800178527832,-0.44852933287620544,-0.2862306833267212
1665946112401098200,3.57309814453125,-2.088637113571167,0.7437031865119934,0.2804662883281708
1665946112411179000,3.583178955078125,-1.9401423931121826,1.4015889167785645,0.8791826963424683
1665946112421260800,3.5932607421875,-1.584219217300415,0.7530543208122253,0.6741081476211548
1665946112431342800,3.6033427734375,-1.2417867183685303,0.6340541839599609,0.41135773062705994
1665946112441423600,3.613423583984375,-0.8107232451438904,0.6309755444526672,0.32641592621803284
1665946112451504600,3.623504638671875,-0.33712315559387207,0.32124805450439453,0.31135761737823486
1665946112461586700,3.633586669921875,0.18528729677200317,0.13981196284294128,0.14159148931503296
1665946112471667700,3.643667724609375,0.41890326142311096,0.3142772316932678,-0.3376246392726898
1665946112481748700,3.653748779296875,0.12576937675476074,1.1146354675292969,-0.7723193764686584
1665946112491830800,3.663830810546875,-0.12760695815086365,1.1283307075500488,-0.2543768882751465
1665946112501911600,3.67391162109375,-0.1981535702943802,0.3051615059375763,0.2596164047718048
1665946112511992600,3.68399267578125,-0.10840956121683121,-0.07287101447582245,0.3290434181690216
1665946112522073900,3.694073974609375,-0.12434938549995422,0.013093697838485241,0.1794658899307251
1665946112532155600,3.70415576171875,-0.17431028187274933,0.17172887921333313,0.08981350809335709
1665946112542237000,3.71423681640625,-0.2328079491853714,0.2372993677854538,0.11951175332069397
1665946112552318000,3.72431787109375,-0.25240081548690796,0.18052423000335693,0.17894817888736725
1665946112562399700,3.734399658203125,-0.24613307416439056,0.11146686971187592,0.2296355962753296
1665946112572480800,3.744480712890625,-0.24413996934890747,0.05107836425304413,0.26475629210472107
1665946112582561800,3.754561767578125,-0.25135207176208496,0.005742041394114494,0.2896163761615753
1665946112592643800,3.764643798828125,-0.27625876665115356,-0.019821109250187874,0.30478546023368835
1665946112602724900,3.774724853515625,-0.30227622389793396,-0.022904783487319946,0.3254268169403076
1665946112612806000,3.784805908203125,-0.3292820155620575,-0.010386860929429531,0.34162336587905884
1665946112622888000,3.794887939453125,-0.3552238643169403,-0.00037204360705800354,0.36388421058654785
1665946112632968700,3.80496875,-0.37895768880844116,0.006314887665212154,0.3873804807662964
1665946112643049700,3.8150498046875,-0.4037943482398987,0.018442390486598015,0.4090527594089508
1665946112653131800,3.8251318359375,-0.43027761578559875,0.044009801000356674,0.4317905604839325
1665946112663212800,3.835212890625,-0.45556938648223877,0.07707773894071579,0.4497282803058624
1665946112673293800,3.8452939453125,-0.46880608797073364,0.11403762549161911,0.4712306261062622
1665946112683375900,3.8553759765625,-0.5023150444030762,0.15010906755924225,0.48080629110336304
1665946112693456600,3.86545654296875,-0.5109458565711975,0.19148901104927063,0.48033785820007324
1665946112703537700,3.87553759765625,-0.5180450081825256,0.22476200759410858,0.4940001368522644
1665946112713619700,3.88561962890625,-0.5263266563415527,0.2522530257701874,0.5057348012924194
1665946112723700700,3.89570068359375,-0.5418885350227356,0.2669488787651062,0.5048205852508545
1665946112733781800,3.90578173828125,-0.5456662774085999,0.2940247058868408,0.49224936962127686
1665946112743863800,3.91586376953125,-0.578691840171814,0.2964463233947754,0.4484670162200928
1665946112753944800,3.92594482421875,-0.5789411067962646,0.2974926829338074,0.39082100987434387
1665946112764025600,3.936025634765625,-0.5741740465164185,0.2971602976322174,0.3402012586593628
1665946112774107600,3.946107666015625,-0.5585996508598328,0.2878722548484802,0.28139758110046387
1665946112784188700,3.956188720703125,-0.5239692330360413,0.28329429030418396,0.23600827157497406
1665946112794269700,3.966269775390625,-0.5127972364425659,0.20277521014213562,0.17268069088459015
1665946112804351700,3.976351806640625,-0.508977472782135,0.11561021953821182,0.09573877602815628
1665946112814432800,3.986432861328125,-0.4959530234336853,0.050322026014328,-0.0025385250337421894
1665946112824513800,3.996513671875,-0.4578080475330353,0.026869431138038635,-0.14622777700424194
1665946112834595600,4.006595703125,-0.3741951584815979,0.020434968173503876,-0.30607283115386963
1665946112844676600,4.016676513671875,-0.258975088596344,0.02556927502155304,-0.4334837794303894
1665946112854758700,4.026758544921875,-0.14901797473430634,0.08682810515165329,-0.5242952108383179
1665946112864839700,4.036839599609375,-0.07425691932439804,0.14798493683338165,-0.5864126086235046
1665946112874921000,4.0469208984375,-0.007382282521575689,0.1630174219608307,-0.6352478265762329
1665946112885002800,4.057002685546875,0.055448345839977264,0.09419654309749603,-0.6605709791183472
1665946112895083800,4.067083740234375,0.10618822276592255,-0.004759334959089756,-0.6793705224990845
1665946112905164800,4.077164794921875,0.12393153458833694,-0.12319304049015045,-0.7198902368545532
1665946112915246800,4.087246826171875,0.1255645751953125,-0.20205029845237732,-0.812094509601593
1665946112925328000,4.097327880859375,0.1275763362646103,-0.18824021518230438,-0.9935556054115295
1665946112935409000,4.107408935546875,0.14830558001995087,-0.07119721174240112,-1.2192881107330322
1665946112945491000,4.117490966796875,0.2292744666337967,0.05560227483510971,-1.4410063028335571
1665946112955571700,4.12757177734375,0.3508504331111908,0.23204602301120758,-1.6177483797073364
1665946112965652700,4.13765283203125,0.458538293838501,0.4590440094470978,-1.7467886209487915
1665946112975734800,4.14773486328125,0.5303842425346375,0.7392695546150208,-1.8063678741455078
1665946112985815800,4.15781591796875,0.5966852307319641,1.0745924711227417,-1.7800626754760742
1665946112995896800,4.167896728515625,0.6247797012329102,1.2965799570083618,-1.732546091079712
1665946113005979000,4.177978759765625,0.6131861805915833,1.4050800800323486,-1.6874933242797852
1665946113016060000,4.188059814453125,0.5798737406730652,1.4771227836608887,-1.6543763875961304
1665946113026140700,4.198140625,0.5321083664894104,1.566657543182373,-1.6189377307891846
1665946113036222700,4.20822265625,0.4829043447971344,1.650272011756897,-1.5845259428024292
1665946113046303700,4.2183037109375,0.4399339556694031,1.6878552436828613,-1.5695518255233765
1665946113056384800,4.228384765625,0.4238860309123993,1.7060800790786743,-1.568446397781372
1665946113066466800,4.238466796875,0.4312952160835266,1.7381075620651245,-1.5676460266113281
1665946113076547800,4.2485478515625,0.41412580013275146,1.7381267547607422,-1.5703712701797485
1665946113086628600,4.258628662109375,0.39157816767692566,1.5671906471252441,-1.5574946403503418
1665946113096710700,4.268710693359375,0.4637620747089386,1.4757007360458374,-1.5304198265075684
1665946113106791700,4.278791748046875,0.5483270287513733,1.5002659559249878,-1.4754871129989624
1665946113116873700,4.288873779296875,0.5842543840408325,1.3977656364440918,-1.417614221572876
1665946113126954800,4.298954833984375,0.631727933883667,1.2058055400848389,-1.342445969581604
1665946113137035800,4.309035888671875,0.6696270704269409,1.0453288555145264,-1.2283947467803955
1665946113147117800,4.319117919921875,0.7495450973510742,0.9809449911117554,-1.08832848072052
1665946113157198600,4.329198486328125,0.8091913461685181,1.055248498916626,-0.9641620516777039
1665946113167279600,4.339279541015625,0.8559476733207703,1.207438588142395,-0.8625409007072449
1665946113177361700,4.349361572265625,0.9116106629371643,1.346726417541504,-0.7745487093925476
1665946113187442700,4.359442626953125,0.9547554850578308,1.4504698514938354,-0.7043224573135376
1665946113197523700,4.369523681640625,1.0131034851074219,1.5513837337493896,-0.6404942274093628
1665946113207605800,4.379605712890625,0.998740553855896,1.5682916641235352,-0.5770025849342346
1665946113217686500,4.3896865234375,0.9893086552619934,1.5623536109924316,-0.5203595757484436
1665946113227767800,4.399767822265625,0.9680982232093811,1.5549882650375366,-0.45718273520469666
1665946113237849600,4.409849609375,0.9247555136680603,1.5237643718719482,-0.385732501745224
1665946113247931000,4.419930908203125,0.8837308287620544,1.459608793258667,-0.3029324412345886
1665946113258012700,4.4300126953125,0.8387095928192139,1.3867844343185425,-0.22085487842559814
1665946113268094000,4.440093994140625,0.8035086989402771,1.2744717597961426,-0.15248169004917145
1665946113278175000,4.450175048828125,0.7794350981712341,1.1430002450942993,-0.08014756441116333
1665946113288256800,4.4602568359375,0.7397856712341309,1.0275362730026245,-0.006669354159384966
1665946113298337800,4.470337890625,0.7564221620559692,0.942643940448761,0.08898260444402695
1665946113308418800,4.480418701171875,0.7399105429649353,0.8524890542030334,0.18531925976276398
1665946113318500900,4.4905009765625,0.7239220142364502,0.7951021790504456,0.27742627263069153
1665946113328582000,4.500581787109375,0.7215136885643005,0.7497965097427368,0.36551034450531006
1665946113338664000,4.510663818359375,0.7285399436950684,0.694650411605835,0.4443955719470978
1665946113348745000,4.520744873046875,0.7268307209014893,0.661315381526947,0.5171430110931396
1665946113358825700,4.53082568359375,0.7051650881767273,0.6458397507667542,0.5848770141601562
1665946113368907800,4.54090771484375,0.6666717529296875,0.6465574502944946,0.648329496383667
1665946113378988800,4.55098876953125,0.6174086332321167,0.6921715140342712,0.7220814824104309
1665946113389069800,4.56106982421875,0.5420627593994141,0.7403651475906372,0.7914251685142517
1665946113399151900,4.57115185546875,0.43772566318511963,0.7804651856422424,0.844012975692749
1665946113409233000,4.58123291015625,0.41448187828063965,0.8564363718032837,0.895043671131134
1665946113419315000,4.59131494140625,0.3762284815311432,0.8924345970153809,0.9254159927368164
1665946113429395700,4.601395751953125,0.32943329215049744,0.9004150032997131,0.8974426984786987
1665946113439476700,4.611476806640625,0.2833864390850067,0.9468317627906799,0.8216805458068848
1665946113449558800,4.621558837890625,0.30938100814819336,1.0222336053848267,0.6889091730117798
1665946113459639600,4.6316396484375,0.33291029930114746,1.1069910526275635,0.5135698318481445
1665946113469720600,4.641720458984375,0.26352459192276,1.207202434539795,0.2889220714569092
1665946113479802600,4.651802734375,0.3533431589603424,1.3134297132492065,0.103230781853199
1665946113489883600,4.661883544921875,0.4536295533180237,1.3359577655792236,-0.07316689193248749
1665946113499965700,4.671965576171875,0.5776654481887817,1.3324705362319946,-0.17370574176311493
1665946113510046700,4.682046630859375,0.6743134260177612,1.2055062055587769,-0.20105214416980743
1665946113520127500,4.69212744140625,0.7358489632606506,0.9831376075744629,-0.15862320363521576
1665946113530209500,4.70220947265625,0.9239541888237,0.8170998692512512,0.03250255063176155
1665946113540290600,4.71229052734375,1.0796436071395874,0.874043881893158,0.3174234926700592
1665946113550371600,4.72237158203125,1.0961709022521973,0.8023155927658081,0.47740092873573303
1665946113560453600,4.73245361328125,1.0779067277908325,0.6190155744552612,0.3962429463863373
1665946113570534700,4.74253466796875,0.9982896447181702,0.4806784689426422,0.25625094771385193
1665946113580616700,4.75261669921875,0.8978402614593506,0.35557302832603455,0.23532304167747498
1665946113590697500,4.762697509765625,0.8612399101257324,0.1632658839225769,0.3210749626159668
1665946113600778500,4.772778564453125,0.7053602933883667,-0.19688403606414795,0.5973297357559204
1665946113610860500,4.782860595703125,0.396341472864151,-0.06655558943748474,0.7692586183547974
1665946113620941600,4.792941650390625,-0.10810276865959167,0.5566036105155945,0.6119257211685181
1665946113631023600,4.803023681640625,-0.7089457511901855,1.1141870021820068,0.3466777801513672
1665946113641104600,4.813104736328125,-1.16781747341156,1.064043641090393,0.2721247375011444
1665946113651185700,4.823185546875,-1.3246525526046753,0.6342421770095825,0.5390805006027222
1665946113661267500,4.833267333984375,-1.1427597999572754,-0.02991502173244953,1.1038140058517456
1665946113671348500,4.843348388671875,-0.7851520776748657,-0.7160132527351379,1.7742277383804321
1665946113681430500,4.853430419921875,-0.40663647651672363,-0.9070867896080017,2.241375207901001
1665946113691511600,4.863511474609375,-0.18213438987731934,-0.7533273100852966,2.2988617420196533
1665946113701592600,4.873592529296875,-0.20286069810390472,-0.3608657717704773,1.9027420282363892
1665946113711674600,4.883674560546875,-0.39342984557151794,0.274099200963974,1.1893941164016724
1665946113721755600,4.893755615234375,-0.4480486214160919,0.7850820422172546,0.6357489824295044
1665946113731836700,4.903836669921875,-0.39925286173820496,1.0356508493423462,0.5640138387680054
1665946113741918500,4.91391845703125,-0.3989255428314209,1.2417577505111694,0.8099372982978821
1665946113751999700,4.923999755859375,-0.38653838634490967,1.1648852825164795,1.1163241863250732
1665946113762081500,4.93408154296875,-0.37991857528686523,0.8774673342704773,1.2996236085891724
1665946113772162600,4.94416259765625,-0.37422260642051697,0.574278712272644,1.3557000160217285
1665946113782243800,4.954243896484375,-0.34851858019828796,0.3372829556465149,1.3394837379455566
1665946113792325600,4.96432568359375,-0.3610799014568329,0.10024644434452057,1.2456523180007935
1665946113802406700,4.97440673828125,-0.36789199709892273,-0.018518555909395218,1.1726995706558228
1665946113812488400,4.984488525390625,-0.3768516778945923,0.08635353296995163,1.1578638553619385
1665946113822569700,4.99456982421875,-0.4193195104598999,0.15295518934726715,1.1395360231399536
1665946113832650800,5.004650634765625,-0.4703312814235687,0.21410110592842102,1.1273856163024902
1665946113842732500,5.014732666015625,-0.5095396637916565,0.3610633909702301,1.1165670156478882
1665946113852813800,5.024813720703125,-0.5077494978904724,0.5085620284080505,1.1179633140563965
1665946113862895600,5.0348955078125,-0.48659709095954895,0.6150208115577698,1.1062371730804443
1665946113872976600,5.0449765625,-0.4272615909576416,0.7011415958404541,1.0678716897964478
1665946113883057700,5.0550576171875,-0.4197208285331726,0.721405565738678,1.0119303464889526
1665946113893139700,5.0651396484375,-0.41397932171821594,0.6418535113334656,0.955114483833313
1665946113903220700,5.075220703125,-0.4524822533130646,0.5054967403411865,0.9057445526123047
1665946113913302800,5.085302734375,-0.44484376907348633,0.43270349502563477,0.8793954849243164
1665946113923383800,5.0953837890625,-0.4499383866786957,0.3997950851917267,0.8585668802261353
1665946113933464600,5.105464599609375,-0.49677541851997375,0.3221740424633026,0.8476375341415405
1665946113943546600,5.115546630859375,-0.5082610845565796,0.29010531306266785,0.8617331385612488
1665946113953627600,5.125627685546875,-0.536544144153595,0.2434331625699997,0.8938282132148743
1665946113963709700,5.135709716796875,-0.5453780889511108,0.3061237037181854,0.9021311402320862
1665946113973790700,5.145790771484375,-0.5331786870956421,0.3780975043773651,0.9081342220306396
1665946113983871700,5.155871826171875,-0.5097538232803345,0.48162469267845154,0.9042593240737915
1665946113993953800,5.165953857421875,-0.52108234167099,0.48396214842796326,0.9045882225036621
1665946114004034600,5.17603466796875,-0.5002630949020386,0.40830227732658386,0.8801822066307068
1665946114014116600,5.18611669921875,-0.48399224877357483,0.327484667301178,0.8549444675445557
1665946114024197600,5.19619775390625,-0.476847767829895,0.20315870642662048,0.8126641511917114
1665946114034278700,5.206278564453125,-0.45084041357040405,0.07956513017416,0.7467687129974365
1665946114044360700,5.216360595703125,-0.4234040081501007,-0.038091991096735,0.6748223900794983
1665946114054441700,5.226441650390625,-0.4132850468158722,-0.1398971825838089,0.5990322828292847
1665946114064523800,5.236523681640625,-0.3910633623600006,-0.21731208264827728,0.5440036654472351
1665946114074604800,5.246604736328125,-0.38375166058540344,-0.2852402627468109,0.5130276083946228
1665946114084685600,5.256685546875,-0.3762567341327667,-0.2964361906051636,0.4780818819999695
1665946114094767600,5.266767578125,-0.3699759244918823,-0.26791587471961975,0.4451758563518524
1665946114104848600,5.2768486328125,-0.3593328595161438,-0.1915193647146225,0.3880790174007416
1665946114114930700,5.2869306640625,-0.3725154995918274,-0.10935764759778976,0.3104313611984253
1665946114125011700,5.29701171875,-0.38368216156959534,-0.058035340160131454,0.2349240928888321
1665946114135092700,5.3070927734375,-0.36358487606048584,0.012289423495531082,0.1655825674533844
1665946114145174800,5.3171748046875,-0.33711543679237366,0.12366601824760437,0.08813971281051636
1665946114155255600,5.327255615234375,-0.2908547520637512,0.26368677616119385,0.009069395251572132
1665946114165337600,5.337337646484375,-0.22336171567440033,0.3808639943599701,-0.059417255222797394
1665946114175418600,5.347418701171875,-0.09852177649736404,0.4604719877243042,-0.1252972036600113
1665946114185500700,5.357500732421875,0.09754519909620285,0.5295783877372742,-0.13769207894802094
1665946114195581700,5.367581787109375,0.2533893883228302,0.5684069991111755,-0.15973959863185883
1665946114205662700,5.377662841796875,0.3242025673389435,0.6254702806472778,-0.26402926445007324
1665946114215744800,5.387744873046875,0.3586582839488983,0.6463220119476318,-0.49238279461860657
1665946114225825500,5.397825439453125,0.3668738603591919,0.6387077569961548,-0.8012258410453796
1665946114235907600,5.407907470703125,0.3909083604812622,0.6025599241256714,-1.1494323015213013
1665946114245988600,5.417988525390625,0.4399792551994324,0.5424067974090576,-1.4807024002075195
1665946114256069600,5.428069580078125,0.5129951238632202,0.43189334869384766,-1.792022466659546
1665946114266151700,5.438151611328125,0.5699353814125061,0.5504562258720398,-2.008244752883911
1665946114276232700,5.448232666015625,0.6365676522254944,0.6698800921440125,-2.1198344230651855
1665946114286314800,5.458314697265625,0.713317334651947,0.6097936034202576,-2.200112819671631
1665946114296395500,5.4683955078125,0.7611569762229919,0.5224866271018982,-2.226144313812256
1665946114306477600,5.4784775390625,0.7744563221931458,0.4804001748561859,-2.1909878253936768
1665946114316558600,5.48855859375,0.7536511421203613,0.4237062633037567,-2.104252576828003
1665946114326639600,5.4986396484375,0.7375155687332153,0.3618282377719879,-1.9683537483215332
1665946114336721700,5.5087216796875,0.714962363243103,0.46513545513153076,-1.8316800594329834
1665946114346802700,5.518802734375,0.6988563537597656,0.8303751945495605,-1.737845540046692
1665946114356884700,5.528884765625,0.7181174159049988,1.0637919902801514,-1.7425110340118408
1665946114366965500,5.538965576171875,0.7900352478027344,0.9073584079742432,-1.8345714807510376
1665946114377047600,5.549047607421875,0.9228830337524414,0.7884493470191956,-1.825326919555664
1665946114387128600,5.559128662109375,1.0465714931488037,0.7721854448318481,-1.7461963891983032
1665946114397209600,5.569209716796875,1.1556587219238281,0.8193398714065552,-1.6637803316116333
1665946114407291600,5.579291748046875,1.2259782552719116,0.9024485945701599,-1.601264476776123
1665946114417372700,5.58937255859375,1.244578242301941,1.0457820892333984,-1.5581779479980469
1665946114427454000,5.599453857421875,1.1874287128448486,1.198302149772644,-1.4986531734466553
1665946114437534700,5.60953466796875,1.149763822555542,1.3626405000686646,-1.440619707107544
1665946114447615700,5.61961572265625,1.0772513151168823,1.4574657678604126,-1.348443627357483
1665946114457697800,5.62969775390625,0.999500572681427,1.496949553489685,-1.225286602973938
1665946114467778800,5.63977880859375,0.9048523902893066,1.4739731550216675,-1.1086065769195557
1665946114477860900,5.64986083984375,0.8466636538505554,1.4778932332992554,-1.005772352218628
1665946114487942000,5.65994189453125,0.8023661971092224,1.439144253730774,-0.9146765470504761
1665946114498024000,5.67002392578125,0.7727406620979309,1.3498914241790771,-0.8185862302780151
1665946114508105000,5.68010498046875,0.7507187128067017,1.2482273578643799,-0.6981167793273926
1665946114518185700,5.690185791015625,0.7453199625015259,1.1466327905654907,-0.5684592127799988
1665946114528267800,5.700267822265625,0.7364535331726074,1.0151336193084717,-0.43212318420410156
1665946114538348800,5.710348876953125,0.7234514355659485,0.860296905040741,-0.2997076213359833
1665946114548430800,5.720430908203125,0.7029301524162292,0.7186718583106995,-0.18635442852973938
1665946114558511900,5.730511962890625,0.6661668419837952,0.5566571354866028,-0.0981617197394371
1665946114568594000,5.740593994140625,0.6236345767974854,0.382670134305954,-0.013599165715277195
1665946114578675000,5.750675048828125,0.5595293641090393,0.1760629117488861,0.07527504861354828
1665946114588757000,5.760757080078125,0.4987402856349945,-0.04104836657643318,0.18660902976989746
1665946114598837800,5.770837646484375,0.4580477178096771,-0.2039448767900467,0.3187348544597626
1665946114608918800,5.780918701171875,0.36422935128211975,-0.37962934374809265,0.46576130390167236
1665946114619000800,5.791000732421875,0.2915434241294861,-0.5506442189216614,0.6170538663864136
1665946114629081900,5.801081787109375,0.30682384967803955,-0.6173372268676758,0.806196391582489
1665946114639164000,5.811163818359375,0.17507247626781464,-0.718926727771759,0.9562522172927856
1665946114649245000,5.821244873046875,0.07023421674966812,-0.8130462765693665,1.03385591506958
1665946114659327000,5.831326904296875,0.0036133769899606705,-0.8321079015731812,1.0602840185165405
1665946114669407700,5.84140771484375,-0.048163533210754395,-0.7693827152252197,1.0508636236190796
1665946114679489000,5.851489013671875,-0.12037088721990585,-0.6846888661384583,0.9955884218215942
1665946114689570800,5.86157080078125,-0.10133673995733261,-0.5275232195854187,0.8760785460472107
1665946114699651800,5.87165185546875,-0.0562097430229187,-0.28384530544281006,0.7284256815910339
1665946114709734000,5.88173388671875,-0.036489035934209824,-0.06610392034053802,0.536022424697876
1665946114719815000,5.89181494140625,0.11539237201213837,0.1251523196697235,0.33231857419013977
1665946114729897000,5.90189697265625,0.2607559561729431,0.2749522030353546,0.15600983798503876
1665946114739977700,5.911977783203125,0.3687218427658081,0.2906810939311981,0.004458930809050798
1665946114750059800,5.922059814453125,0.4516979455947876,0.19119392335414886,-0.1420343667268753
1665946114760140800,5.932140869140625,0.5408682823181152,0.11847924441099167,-0.2487027645111084
1665946114770221800,5.942221923828125,0.5809118747711182,0.13884203135967255,-0.3237631618976593
1665946114780304000,5.952303955078125,0.5855774283409119,0.2125016152858734,-0.3532209098339081
1665946114790385000,5.962385009765625,0.626059353351593,0.3012509346008301,-0.3170469403266907
1665946114800467000,5.972467041015625,0.6694305539131165,0.560227632522583,-0.3165348172187805
1665946114810547700,5.982547607421875,0.6555509567260742,1.0024875402450562,-0.481290727853775
1665946114820629800,5.992629638671875,0.5948737263679504,1.1447547674179077,-0.5855093002319336
1665946114830710800,6.002710693359375,0.5651280879974365,0.5171158313751221,-0.3857958912849426
1665946114840792800,6.012792724609375,0.7615072131156921,-0.4998292624950409,0.02016465738415718
1665946114850873900,6.022873779296875,0.8493340015411377,-1.3929272890090942,0.6144844889640808
1665946114860955000,6.032954833984375,0.6304258704185486,-1.6301506757736206,1.0315003395080566
1665946114871037000,6.043036865234375,0.20089848339557648,-1.1985117197036743,1.0560107231140137
1665946114881117700,6.05311767578125,-0.3261837065219879,-0.5896534323692322,0.8273413181304932
1665946114891199700,6.06319970703125,-0.8557516932487488,-0.25308579206466675,0.5215654373168945
1665946114901280800,6.07328076171875,-1.1641122102737427,-0.3426867723464966,0.3726654350757599
1665946114911362800,6.08336279296875,-1.2066593170166016,-0.7035075426101685,0.4585356116294861
1665946114921443800,6.09344384765625,-1.0789849758148193,-1.2399859428405762,0.7664585709571838
1665946114931526000,6.10352587890625,-0.873291552066803,-1.79156494140625,1.148500680923462
1665946114941607000,6.11360693359375,-0.6444940567016602,-2.1475274562835693,1.4141910076141357
1665946114951689000,6.12368896484375,-0.4625180959701538,-2.251187324523926,1.456551194190979
1665946114961769700,6.133769775390625,-0.3351566791534424,-2.1991443634033203,1.2889102697372437
1665946114971850800,6.143850830078125,-0.2813704311847687,-2.0508086681365967,1.0087764263153076
1665946114981932800,6.153932861328125,-0.21749503910541534,-1.8841617107391357,0.762799084186554
1665946114992013800,6.164013916015625,-0.12356507778167725,-1.8832967281341553,0.6657708287239075
1665946115002095900,6.174095947265625,-0.01635793410241604,-2.0202348232269287,0.718329131603241
1665946115012177000,6.184177001953125,0.05885292962193489,-2.2140238285064697,0.8172754049301147
1665946115022259000,6.194259033203125,0.07812117040157318,-2.4034948348999023,0.8680989146232605
1665946115032339700,6.204339599609375,0.08469011634588242,-2.540605068206787,0.8585655689239502
1665946115042421800,6.214421875,0.05698046088218689,-2.7130377292633057,0.811955451965332
1665946115052502800,6.224502685546875,-0.028362132608890533,-2.975745916366577,0.7801397442817688
1665946115062584800,6.234584716796875,-0.10875311493873596,-3.1043097972869873,0.7929724454879761
1665946115072665900,6.244665771484375,-0.20717795193195343,-3.0967540740966797,0.8168362379074097
1665946115082747000,6.254746826171875,-0.26462846994400024,-2.9742865562438965,0.8055683970451355
1665946115092829000,6.264828857421875,-0.3053598999977112,-2.867112398147583,0.7841731309890747
1665946115102910000,6.274909912109375,-0.3110758662223816,-2.796497344970703,0.7026971578598022
1665946115112991700,6.28499169921875,-0.38494768738746643,-2.684034824371338,0.621957004070282
1665946115123072800,6.29507275390625,-0.39288389682769775,-2.517016887664795,0.5747570395469666
1665946115133154800,6.30515478515625,-0.38687315583229065,-2.404486894607544,0.4979642629623413
1665946115143235800,6.31523583984375,-0.40445372462272644,-2.2173385620117188,0.4981970191001892
1665946115153318000,6.32531787109375,-0.3648437559604645,-2.1403467655181885,0.4869630038738251
1665946115163399000,6.33539892578125,-0.34663650393486023,-2.1648318767547607,0.45487990975379944
1665946115173481000,6.34548095703125,-0.3536328971385956,-2.267310380935669,0.4251779317855835
1665946115183562000,6.35556201171875,-0.32781434059143066,-2.2744758129119873,0.4344542622566223
1665946115193642800,6.365642822265625,-0.3034392297267914,-2.1889944076538086,0.48174986243247986
1665946115203724800,6.375724853515625,-0.27301210165023804,-2.102503776550293,0.5005451440811157
1665946115213805800,6.385805908203125,-0.21763059496879578,-2.0662388801574707,0.5023139715194702
1665946115223888000,6.395887939453125,-0.18283505737781525,-2.0080173015594482,0.45781975984573364
1665946115233969000,6.405968994140625,-0.1897214651107788,-1.8854151964187622,0.39271771907806396
1665946115244051000,6.416051025390625,-0.19416414201259613,-1.8176915645599365,0.28320586681365967
1665946115254132000,6.426132080078125,-0.18810811638832092,-1.7273638248443604,0.22274599969387054
1665946115264214000,6.436214111328125,-0.17698995769023895,-1.6171025037765503,0.17875030636787415
1665946115274294800,6.446294677734375,-0.19368425011634827,-1.5507313013076782,0.11895435303449631
1665946115284376800,6.456376953125,-0.16137132048606873,-1.5205241441726685,0.09622746706008911
1665946115294457900,6.466457763671875,-0.14261680841445923,-1.5300276279449463,0.08726539462804794
1665946115304540000,6.476539794921875,-0.14757081866264343,-1.577215552330017,0.07472030818462372
1665946115314621000,6.486620849609375,-0.1470957100391388,-1.599242925643921,0.034636806696653366
1665946115324702000,6.496701904296875,-0.13414475321769714,-1.6437650918960571,-0.033964358270168304
1665946115334784000,6.506783935546875,-0.11757323145866394,-1.6505942344665527,-0.09042630344629288
1665946115344864800,6.51686474609375,-0.09235230088233948,-1.6484434604644775,-0.13792164623737335
1665946115354946800,6.52694677734375,-0.05006689578294754,-1.5893055200576782,-0.12985679507255554
1665946115365027800,6.53702783203125,-0.04809535667300224,-1.5256224870681763,-0.1474222093820572
1665946115375110000,6.54710986328125,-0.07847137004137039,-1.515251874923706,-0.19839031994342804
1665946115385191000,6.55719091796875,-0.054071489721536636,-1.5294219255447388,-0.23155413568019867
1665946115395273000,6.56727294921875,-0.07613284885883331,-1.592302918434143,-0.277237206697464
1665946115405354000,6.57735400390625,-0.13366058468818665,-1.6935088634490967,-0.3851807117462158
1665946115415436000,6.58743603515625,-0.1280599683523178,-1.730769157409668,-0.5239971876144409
1665946115425517800,6.597517822265625,-0.06112833321094513,-1.7014808654785156,-0.6769406795501709
1665946115435600000,6.607599853515625,0.11661849170923233,-1.6717815399169922,-0.7761458158493042
1665946115445681000,6.617680908203125,0.278504341840744,-1.7084604501724243,-0.8590518832206726
1665946115455762000,6.627761962890625,0.42253872752189636,-1.769227147102356,-0.9452267289161682
1665946115465844000,6.637843994140625,0.5744739174842834,-1.7361648082733154,-1.028423547744751
1665946115475924700,6.6479248046875,0.6723871827125549,-1.630031943321228,-1.185683012008667
1665946115486006800,6.6580068359375,0.7576954364776611,-1.4516669511795044,-1.5466874837875366
1665946115496087800,6.668087890625,0.6960906386375427,-1.182119369506836,-2.008889675140381
1665946115506169900,6.678169921875,0.574209988117218,-0.9900402426719666,-2.4786665439605713
1665946115516251000,6.6882509765625,0.45198798179626465,-1.0928415060043335,-2.9086008071899414
1665946115526333000,6.6983330078125,0.3749895989894867,-1.3223484754562378,-3.243828773498535
1665946115536414000,6.7084140625,0.281573086977005,-1.3614503145217896,-3.419142007827759
1665946115546496000,6.71849609375,0.16768459975719452,-1.2193632125854492,-3.4713330268859863
1665946115556576800,6.72857666015625,0.13134177029132843,-1.059329867362976,-3.36438250541687
1665946115566658800,6.738658935546875,0.18958590924739838,-0.7879388332366943,-3.033834934234619
1665946115576739800,6.74873974609375,0.22784754633903503,-0.8253804445266724,-2.739910125732422
1665946115586822000,6.75882177734375,0.26424551010131836,-1.1366413831710815,-2.543470859527588
1665946115596903000,6.76890283203125,0.37778031826019287,-1.4042773246765137,-2.445148468017578
1665946115606984000,6.77898388671875,0.4835222065448761,-1.6356825828552246,-2.4613404273986816
1665946115617066000,6.78906591796875,0.5909397006034851,-1.395948052406311,-2.4850783348083496
1665946115627146800,6.799146728515625,0.6978060007095337,-0.8615086078643799,-2.519582748413086
1665946115637228800,6.809228759765625,0.7417595982551575,-0.386778861284256,-2.5373504161834717
1665946115647309800,6.819309814453125,0.710340142250061,-0.02009701170027256,-2.453815221786499
1665946115657391900,6.829391845703125,0.6052486300468445,0.2044793665409088,-2.3039982318878174
1665946115667473000,6.839472900390625,0.5074911713600159,0.38058117032051086,-2.128117084503174
1665946115677555000,6.849554931640625,0.411062628030777,0.5695196390151978,-1.9596703052520752
1665946115687636000,6.859635986328125,0.32372960448265076,0.7149969339370728,-1.8251252174377441
1665946115697718000,6.869718017578125,0.2841337323188782,0.8341558575630188,-1.69352388381958
1665946115707798800,6.879798828125,0.30032333731651306,0.9497671127319336,-1.5573539733886719
1665946115717880800,6.889880859375,0.34716275334358215,1.0483509302139282,-1.437193751335144
1665946115727961900,6.8999619140625,0.38180994987487793,1.0523771047592163,-1.3070125579833984
1665946115738043000,6.91004296875,0.40683114528656006,1.015861988067627,-1.1775294542312622
1665946115748125000,6.920125,0.43274369835853577,0.968042254447937,-1.0764132738113403
1665946115758206000,6.9302060546875,0.46158307790756226,0.8236691355705261,-0.9420878887176514
1665946115768288000,6.9402880859375,0.46059131622314453,0.6598631143569946,-0.7711851596832275
1665946115778368800,6.95036865234375,0.4452504515647888,0.5186676383018494,-0.5752768516540527
1665946115788450800,6.960450927734375,0.4320693910121918,0.3881964683532715,-0.37501010298728943
1665946115798531800,6.97053173828125,0.42044150829315186,0.30680468678474426,-0.15843038260936737
1665946115808614000,6.98061376953125,0.4073483347892761,0.2674514055252075,0.06643601506948471
1665946115818695000,6.99069482421875,0.37922000885009766,0.3037111461162567,0.2704208493232727
1665946115828777000,7.00077685546875,0.35834378004074097,0.36580967903137207,0.438477486371994
1665946115838858000,7.01085791015625,0.3266819715499878,0.32722020149230957,0.599980890750885
1665946115848939800,7.020939697265625,0.2756371796131134,0.18979443609714508,0.7851923108100891
1665946115859020800,7.031020751953125,0.19871895015239716,-0.006398510653525591,0.9896519780158997
1665946115869102600,7.0411025390625,0.16252632439136505,-0.22093504667282104,1.1997876167297363
1665946115879184000,7.051183837890625,0.08599666506052017,-0.43456795811653137,1.3959672451019287
1665946115889265000,7.061264892578125,-0.04664553329348564,-0.5826621055603027,1.530654788017273
1665946115899347000,7.071346923828125,-0.19798551499843597,-0.6296008229255676,1.6023744344711304
1665946115909428000,7.081427978515625,-0.25030410289764404,-0.45539015531539917,1.624517560005188
1665946115919509800,7.091509765625,-0.24976935982704163,-0.21257618069648743,1.5420647859573364
1665946115929590800,7.1015908203125,-0.19069351255893707,0.10307898372411728,1.34922456741333
1665946115939672800,7.1116728515625,-0.11066100001335144,0.35276123881340027,1.01228666305542
1665946115949753900,7.12175390625,0.029806364327669144,0.6115821599960327,0.5524301528930664
1665946115959835600,7.131835693359375,0.1655399650335312,0.8318035006523132,0.08413378894329071
1665946115969917000,7.1419169921875,0.3435818552970886,1.0034217834472656,-0.26898884773254395
1665946115979998700,7.151998779296875,0.45689111948013306,1.0548813343048096,-0.47404107451438904
1665946115990080000,7.162080078125,0.5458250045776367,1.0545865297317505,-0.6238082051277161
1665946116000161800,7.172161865234375,0.6673074960708618,1.0776965618133545,-0.748289167881012
1665946116010242800,7.182242919921875,0.7560312151908875,1.1738684177398682,-0.8704989552497864
1665946116020324600,7.19232470703125,0.871806263923645,0.9254298210144043,-0.9804978966712952
1665946116030405600,7.202405517578125,1.062868356704712,0.40257275104522705,-0.7624318599700928
1665946116040487700,7.21248779296875,0.966393768787384,-0.3970421552658081,-0.1990758180618286
1665946116050568700,7.222568603515625,0.8280460238456726,-1.3638439178466797,0.5283053517341614
1665946116060650000,7.23264990234375,0.7186441421508789,-1.8134156465530396,1.2012901306152344
1665946116070731800,7.242731689453125,0.34970608353614807,-1.3558720350265503,1.3413794040679932
1665946116080812800,7.252812744140625,-0.0906372219324112,-0.08896635472774506,0.8908273577690125
1665946116090894600,7.26289453125,-0.6512272953987122,1.3105151653289795,0.10079532116651535
1665946116100975900,7.272975830078125,-1.1582319736480713,1.8155293464660645,-0.3208602964878082
1665946116111057700,7.2830576171875,-1.2785881757736206,1.4690827131271362,-0.0915384367108345
1665946116121138700,7.293138671875,-1.200939416885376,0.48226198554039,0.4957559406757355
1665946116131220700,7.303220703125,-1.022732138633728,-0.6035982370376587,1.091680645942688
1665946116141301800,7.3133017578125,-0.8042232394218445,-1.4524645805358887,1.630629301071167
1665946116151383800,7.3233837890625,-0.5624529719352722,-1.8032069206237793,1.903488278388977
1665946116161464600,7.333464599609375,-0.42951250076293945,-1.5132523775100708,1.854101538658142
1665946116171546600,7.343546630859375,-0.3408667743206024,-0.8653153777122498,1.5507038831710815
1665946116181627600,7.353627685546875,-0.3011300265789032,-0.21111410856246948,1.1946383714675903
1665946116191709700,7.363709716796875,-0.33237555623054504,0.21913793683052063,0.9880503416061401
1665946116201790700,7.373790771484375,-0.44838017225265503,0.43904101848602295,0.8782687187194824
1665946116211872800,7.383872802734375,-0.5632566809654236,0.5108613967895508,0.8432169556617737
1665946116221953800,7.393953857421875,-0.6744844317436218,0.42413023114204407,0.8530224561691284
1665946116232034600,7.40403466796875,-0.719756007194519,0.23333019018173218,0.9053754210472107
1665946116242116600,7.41411669921875,-0.6767600774765015,-0.0005470133037306368,1.0249745845794678
1665946116252197600,7.42419775390625,-0.5678378939628601,-0.2247617393732071,1.1827309131622314
1665946116262279700,7.43427978515625,-0.35737383365631104,-0.34171178936958313,1.294350028038025
1665946116272360700,7.444360595703125,-0.21205393970012665,-0.36227700114250183,1.289690375328064
1665946116282442800,7.45444287109375,-0.18097777664661407,-0.3510427176952362,1.2105196714401245
1665946116292523800,7.464523681640625,-0.15883278846740723,-0.3402710258960724,1.152677059173584
1665946116302605800,7.474605712890625,-0.20033256709575653,-0.32838931679725647,1.1434838771820068
1665946116312686600,7.4846865234375,-0.32310909032821655,-0.31514355540275574,1.1594260931015015
1665946116322768600,7.4947685546875,-0.41085144877433777,-0.30020004510879517,1.1698893308639526
1665946116332849700,7.504849609375,-0.46348217129707336,-0.27326855063438416,1.143616795539856
1665946133136776000,24.30877587890625,0.42125001549720764,0.29444149136543274,-0.371907502412796
1665946133151897900,24.32389794921875,0.3411533236503601,0.5281458497047424,-0.2247641384601593
1665946133161979000,24.333978759765625,0.30009403824806213,0.6199141144752502,-0.09649617969989777
1665946133172060000,24.344059814453125,0.2558850347995758,0.6135212182998657,-0.029412217438220978
1665946133182141000,24.354140869140625,0.22874502837657928,0.5547052621841431,-0.014393853023648262
1665946133192222000,24.364221923828126,0.21459618210792542,0.4990239143371582,-0.0065348646603524685
1665946133202303000,24.374302978515626,0.1900636851787567,0.4902466833591461,0.019365442916750908
1665946133212384000,24.384384033203126,0.23055464029312134,0.3732481598854065,0.036726854741573334
1665946133222465000,24.394465087890627,0.24135509133338928,0.2885977029800415,0.01261166576296091
1665946133232545800,24.4045458984375,0.27843722701072693,0.24651576578617096,0.029320072382688522
1665946133242626800,24.414626708984375,0.3213018476963043,0.11962546408176422,0.05331568419933319
1665946133252708900,24.424708984375,0.3154298663139343,-0.0605192705988884,0.002921221312135458
1665946133262790000,24.434789794921876,0.2852839529514313,-0.19504912197589874,-0.07268378883600235
1665946133272871000,24.444870849609377,0.2731684148311615,-0.18967778980731964,-0.14826376736164093
1665946133282952000,24.454951904296873,0.29741331934928894,-0.033780068159103394,-0.21241453289985657
1665946133293033000,24.465032958984374,0.33188551664352417,0.16353407502174377,-0.26641491055488586
1665946133303114000,24.475114013671874,0.3606306314468384,0.3145824372768402,-0.2970287501811981
1665946133313195000,24.485195068359374,0.3873136341571808,0.43241560459136963,-0.3266391158103943
1665946133323276000,24.495276123046875,0.41062188148498535,0.5117878913879395,-0.3424247205257416
1665946133333356800,24.505356689453127,0.413675457239151,0.5542616248130798,-0.3298351764678955
1665946133343437800,24.515437744140623,0.3796173632144928,0.5445546507835388,-0.28374356031417847
1665946133353519900,24.525519775390624,0.32486197352409363,0.49005013704299927,-0.20603199303150177
1665946133363601000,24.535600830078124,0.28566503524780273,0.4339005649089813,-0.10498740524053574
1665946133373682000,24.545681884765624,0.28932714462280273,0.3672581613063812,-0.016990168020129204
1665946133383763000,24.555762939453125,0.31268441677093506,0.3230915069580078,0.0453251376748085
1665946133393844000,24.565843994140625,0.3398185670375824,0.3427712023258209,0.12387081235647202
1665946133403925000,24.575925048828125,0.35011860728263855,0.39066842198371887,0.18896380066871643
1665946133414006000,24.586006103515626,0.36816418170928955,0.38865771889686584,0.255007266998291
1665946133424086800,24.596086669921874,0.3606090545654297,0.3563975393772125,0.3259115219116211
1665946133434167800,24.606167724609374,0.39618968963623047,0.4426437318325043,0.3819763958454132
1665946133444248800,24.616248779296875,0.46263155341148376,0.42643892765045166,0.4038286805152893
1665946133454331100,24.6263310546875,0.5016101002693176,0.25085484981536865,0.3647066056728363
1665946133464412200,24.636412109375,0.5343558192253113,0.14201518893241882,0.3016996681690216
1665946133474493200,24.6464931640625,0.5673891305923462,0.15390567481517792,0.24615517258644104
1665946133484574200,24.65657421875,0.5815749764442444,0.17924165725708008,0.20061752200126648
1665946133494655500,24.666655517578125,0.6089773178100586,0.1685221642255783,0.12819844484329224
1665946133504736300,24.676736328125,0.6406353712081909,0.1939511001110077,0.048642102628946304
1665946133514817300,24.6868173828125,0.6565418839454651,0.28247910737991333,-0.014720089733600616
1665946133524898300,24.696898193359374,0.6492205858230591,0.34964749217033386,-0.059715528041124344
1665946133534979300,24.706979248046874,0.5845955610275269,0.34707939624786377,-0.07586227357387543
1665946133545061400,24.717061279296875,0.4047591984272003,0.3683710992336273,-0.001094825565814972
1665946133555142100,24.72714208984375,0.18226301670074463,0.2943943440914154,0.07577385753393173
1665946133565223200,24.73722314453125,-0.013856959529221058,0.14796096086502075,0.09095574170351028
1665946133575304200,24.74730419921875,-0.13095667958259583,0.12027953565120697,0.09415605664253235
1665946133585385200,24.75738525390625,-0.15142573416233063,0.17116296291351318,0.06845735758543015
1665946133595466500,24.767466552734376,-0.13115082681179047,0.24613440036773682,0.03853088244795799
1665946133605547300,24.77754736328125,-0.09001937508583069,0.31914976239204407,0.014305169694125652
1665946133615628300,24.787628173828125,-0.03470125421881676,0.3266020715236664,-0.005953230429440737
1665946133625709300,24.797709228515625,0.0197428110986948,0.2765631377696991,0.007649663835763931
1665946133635791400,24.807791259765626,0.06887227296829224,0.2311653047800064,0.0315169133245945
1665946133645872400,24.817872314453126,0.10715308785438538,0.24592135846614838,0.04201056808233261
1665946133655953200,24.827953125,0.10843486338853836,0.2178870588541031,0.012643623165786266
1665946133666034200,24.8380341796875,0.07920534163713455,0.206371009349823,-0.062134742736816406
1665946133676115200,24.848115234375,0.03412521257996559,0.19567255675792694,-0.12335282564163208
1665946133686196200,24.8581962890625,-0.006162820849567652,0.17506742477416992,-0.1625921130180359
1665946133696277200,24.86827734375,-0.023564448580145836,0.13781379163265228,-0.17553719878196716
1665946133706358300,24.878358154296876,-0.01002174150198698,0.07204569876194,-0.1623537540435791
1665946133716440300,24.8884404296875,0.01011202298104763,0.04381672292947769,-0.11795859783887863
1665946133726521300,24.898521240234373,0.01008059736341238,0.04807751253247261,-0.08068312704563141
1665946133736602400,24.908602294921874,-0.004255997482687235,0.08590478450059891,-0.07443907856941223
1665946133746683400,24.918683349609374,-0.0067601678892970085,0.1283489167690277,-0.10248056799173355
1665946133756764200,24.92876416015625,-0.010602576658129692,0.18171440064907074,-0.15097832679748535
1665946133766845200,24.93884521484375,-0.018153171986341476,0.21662285923957825,-0.1865035593509674
1665946133776926200,24.94892626953125,-0.030195185914635658,0.223405659198761,-0.1908935159444809
1665946133787007200,24.95900732421875,-0.03531937301158905,0.2092035561800003,-0.16863694787025452
1665946133797089300,24.96908935546875,-0.02834429033100605,0.17393212020397186,-0.1691666543483734
1665946133807170000,24.979170166015624,-0.013896108604967594,0.13458923995494843,-0.17098399996757507
1665946133817251300,24.989251220703125,0.005110339727252722,0.12053360790014267,-0.15913745760917664
1665946133827332400,24.999332275390625,0.011771438643336296,0.10925431549549103,-0.12274535745382309
1665946133837413400,25.009413330078125,0.005498628597706556,0.08226025104522705,-0.06896335631608963
1665946133847494400,25.019494384765625,0.0019683423452079296,0.05203710123896599,-0.009791644290089607
1665946133857575200,25.0295751953125,-0.00026844663079828024,0.037163879722356796,0.02617061696946621
1665946133867656200,25.03965625,-0.008200405165553093,0.02510162442922592,0.04741279035806656
1665946133877738200,25.04973828125,-0.009722935035824776,0.03959587961435318,0.06520696729421616
1665946133887819300,25.0598193359375,-0.010760235600173473,0.0499957874417305,0.069365493953228
1665946133897900300,25.069900390625,-0.009918410331010818,0.07815791666507721,0.04935183748602867
1665946133907981000,25.07998095703125,-0.013647635467350483,0.09780405461788177,0.03566984832286835
1665946133918062300,25.090062255859376,-0.01744343899190426,0.08582036197185516,0.03982171416282654
1665946133928143400,25.100143310546876,-0.013496100902557373,0.05344538018107414,0.06347750872373581
1665946133938224400,25.110224365234377,-0.013827398419380188,0.013159211724996567,0.10141690075397491
1665946133948306400,25.120306396484374,-0.007174289785325527,-0.03437475115060806,0.12777180969715118
1665946133958387500,25.130387451171874,0.01323750801384449,-0.0666903480887413,0.11191002279520035
1665946133968468200,25.14046826171875,0.02100089006125927,-0.03940492868423462,0.06791912764310837
1665946133978549200,25.15054931640625,0.013699300587177277,0.0206938274204731,0.028490763157606125
1665946133988630300,25.16063037109375,-0.0018093516118824482,0.07954276353120804,0.001008272753097117
1665946133998711300,25.170711181640623,-0.014752314426004887,0.10709928721189499,-0.01374936755746603
1665946134008792000,25.1807919921875,-0.016930246725678444,0.10569606721401215,-0.007500793319195509
1665946134018874000,25.1908740234375,-0.018805911764502525,0.07349259406328201,0.013952300883829594
1665946134028955100,25.200955078125,-0.014039386063814163,0.020305005833506584,0.04971589148044586
1665946134039036200,25.2110361328125,-0.0060208747163414955,-0.01618562825024128,0.08228129148483276
1665946134049117400,25.221117431640625,-0.01088646985590458,-0.023270968347787857,0.10892488807439804
1665946134059198200,25.2311982421875,-0.015119831077754498,-0.001680720946751535,0.10603348910808563
1665946134069279200,25.241279296875,-0.03033473528921604,0.037165213376283646,0.08006101101636887
1665946134079361300,25.251361328125,-0.047678571194410324,0.07580075412988663,0.042826294898986816
1665946134089442300,25.2614423828125,-0.05763133987784386,0.09523384273052216,0.006147108506411314
1665946134099523300,25.2715234375,-0.052325788885354996,0.08117315173149109,-0.03732500225305557
1665946134109604400,25.281604248046875,-0.037211816757917404,0.07271628081798553,-0.06287749856710434
1665946134119685000,25.29168505859375,-0.023087475448846817,0.0748838260769844,-0.06987681984901428
1665946134129766100,25.30176611328125,-0.02273593842983246,0.07828734815120697,-0.04781971871852875
1665946134139848200,25.31184814453125,-0.02815919928252697,0.05152684077620506,-0.023750070482492447
1665946134149929200,25.32192919921875,-0.01805010624229908,0.007968977093696594,-0.006905843038111925
1665946134160010200,25.33201025390625,-0.015006380155682564,-0.008026767522096634,-0.004594485275447369
1665946134170091300,25.34209130859375,-0.020858410745859146,-0.009681656025350094,-0.004247475415468216
1665946134180172300,25.35217236328125,-0.027955735102295876,-0.008579373359680176,-0.004604339133948088
1665946134190253300,25.36225341796875,-0.028968535363674164,0.006174538750201464,-0.003052515210583806
1665946134200335400,25.37233544921875,-0.03350496292114258,0.01840590499341488,-0.009619071148335934
1665946134210416400,25.38241650390625,-0.04030241444706917,0.02353621833026409,-0.013621003367006779
1665946134220497400,25.392497314453124,-0.03798573091626167,0.012149074114859104,-0.0211231280118227
1665946134230578200,25.402578125,-0.018699651584029198,0.0034991272259503603,-0.026705913245677948
1665946134240659200,25.4126591796875,-0.0006865629111416638,0.000006125270374468528,-0.03832901269197464
1665946134250740200,25.422740234375,0.005310875829309225,-0.0037521275226026773,-0.02977653779089451
1665946134260822300,25.432822265625,-0.0029635655228048563,-0.007336475886404514,-0.015561383217573166
1665946134270903300,25.4429033203125,-0.005739644635468721,0.008187622763216496,-0.014216486364603043
1665946134280984000,25.452984130859374,0.004277036525309086,0.06142021715641022,-0.017419204115867615
1665946134291065300,25.4630654296875,0.011736550368368626,0.09874068945646286,-0.04645298421382904
1665946134301146400,25.473146484375,0.03398166969418526,0.10325794667005539,-0.0842224657535553
1665946134311227400,25.483227294921875,0.05674850195646286,0.15417972207069397,-0.04866474121809006
1665946134321309400,25.493309326171875,-0.022413430735468864,0.13346804678440094,0.1274527609348297
1665946134331390200,25.50339013671875,-0.06686665117740631,-0.1352827250957489,0.17835882306098938
1665946134341471200,25.51347119140625,-0.05241180956363678,-0.1799873411655426,0.14390631020069122
1665946134351552300,25.52355224609375,-0.04692010581493378,-0.09256722033023834,0.04366758465766907
1665946134361633300,25.53363330078125,-0.08275347203016281,-0.05897437036037445,-0.08358970284461975
1665946134371714300,25.54371435546875,-0.11795007437467575,0.005259210709482431,-0.2355978786945343
1665946134381796400,25.55379638671875,-0.1322357952594757,0.12272405624389648,-0.39051342010498047
1665946134391877000,25.563877197265626,-0.14103302359580994,0.2153373509645462,-0.49511438608169556
1665946134401958100,25.573958251953126,-0.13197268545627594,0.27163469791412354,-0.52899169921875
1665946134412039200,25.5840390625,-0.10625000298023224,0.26156049966812134,-0.46610110998153687
1665946134422120400,25.594120361328127,-0.09296535700559616,0.16264696419239044,-0.32410430908203125
