time,seconds_elapsed,z,y,x
1665946108855008800,0.0270087890625,-0.017313960939645767,-0.001982694258913398,0.03772777318954468
1665946108865089800,0.03708984375,-0.025986183434724808,0.005482073873281479,0.028944844380021095
1665946108875171000,0.047171142578125,-0.027779553085565567,0.010840088129043579,0.022425692528486252
1665946108885252000,0.057252197265625,-0.03064546547830105,0.006747109349817038,0.015384767204523087
1665946108895334000,0.067333984375,-0.0348157063126564,0.0014961548149585724,0.016380522400140762
1665946108905415000,0.077414794921875,-0.031921520829200745,-0.001232014037668705,0.023430000990629196
1665946108915496000,0.087495849609375,-0.028835982084274292,-0.0018328230362385511,0.02747667208313942
1665946108925577000,0.097576904296875,-0.030237922444939613,-0.0029597014654427767,0.03365449607372284
1665946108935659000,0.107658935546875,-0.035243332386016846,0.00435493653640151,0.03611499071121216
1665946108945740000,0.117739990234375,-0.0400918610394001,0.00565469590947032,0.031551543623209
1665946108955821000,0.127821044921875,-0.041616253554821014,0.00828803051263094,0.02408697083592415
1665946108965901800,0.13790185546875,-0.037227563560009,0.008207659237086773,0.025948815047740936
1665946108975982800,0.14798291015625,-0.03381498530507088,0.010789061896502972,0.03607974573969841
1665946108986065000,0.15806494140625,-0.033253490924835205,0.014868506230413914,0.034517861902713776
1665946108996146000,0.16814599609375,-0.028377242386341095,0.013948384672403336,0.034576982259750366
1665946109006227000,0.17822705078125,-0.024526488035917282,0.008386212401092052,0.033208414912223816
1665946109016307700,0.1883076171875,-0.02228996530175209,0.0076352013275027275,0.03810596838593483
1665946109026389800,0.1983896484375,-0.02449449710547924,0.006139881908893585,0.035151638090610504
1665946109036470800,0.208470703125,-0.015927640721201897,0.00518966605886817,0.039243586361408234
1665946109046552000,0.218552001953125,-0.014311155304312706,0.004741627722978592,0.04209059104323387
1665946109056633000,0.228633056640625,-0.01072041504085064,-0.002556765219196677,0.046752188354730606
1665946109066715000,0.23871484375,-0.011528469622135162,-0.011797409504652023,0.04849093407392502
1665946109076796000,0.2487958984375,-0.0069014932960271835,-0.021847380325198174,0.05140949413180351
1665946109086877000,0.258876953125,-0.009541338309645653,-0.027603069320321083,0.04855772480368614
1665946109096958000,0.2689580078125,-0.014016780070960522,-0.027552735060453415,0.04464154317975044
1665946109107040000,0.2790400390625,-0.03638394922018051,-0.024134978652000427,0.030056031420826912
1665946109117121000,0.28912109375,-0.048373766243457794,-0.0260684322565794,0.02787383645772934
1665946109127202000,0.2992021484375,-0.04146549478173256,-0.0005079878028482199,0.01522518415004015
1665946109137282800,0.30928271484375,-0.016243228688836098,-0.02605276368558407,0.012735394760966301
1665946109147364900,0.31936474609375,-0.014458650723099709,0.014453562907874584,0.056986063718795776
1665946109157446000,0.32944580078125,0.018468141555786133,0.11330211162567139,0.09167852997779846
1665946109167527000,0.33952685546875,-0.011593284085392952,0.05900164693593979,0.029559262096881866
1665946109177608000,0.34960791015625,-0.07276875525712967,-0.09379855543375015,0.005261381156742573
1665946109187690000,0.35968994140625,-0.08974235504865646,-0.06340152770280838,-0.009284126572310925
1665946109197770800,0.369770751953125,-0.042567647993564606,-0.10932694375514984,-0.04954872280359268
1665946109207851800,0.379851806640625,-0.07280100136995316,-0.1501138061285019,-0.03941873833537102
1665946109217933000,0.38993310546875,-0.043739788234233856,-0.17788098752498627,-0.04773818701505661
1665946109228014800,0.400014892578125,-0.028621114790439606,-0.209064319729805,-0.051619239151477814
1665946109238096000,0.410095947265625,-0.054488930851221085,-0.23126469552516937,-0.05148288607597351
1665946109248177000,0.420177001953125,-0.0782599002122879,-0.2179456502199173,-0.04858892038464546
1665946109258258000,0.4302578125,-0.08434335887432098,-0.15141908824443817,-0.05067577585577965
1665946109268340000,0.440340087890625,-0.1038467064499855,-0.04768559709191322,-0.05903156101703644
1665946109278421000,0.4504208984375,-0.1151702031493187,-0.04766961559653282,-0.10002826154232025
1665946109288502000,0.460501953125,-0.13829584419727325,-0.0512731559574604,-0.08447395265102386
1665946109298583000,0.4705830078125,-0.23244976997375488,-0.21165458858013153,0.07311141490936279
1665946109308665000,0.4806650390625,-0.23864863812923431,-0.3929317593574524,0.2044079750776291
1665946109318745900,0.490745849609375,-0.24796117842197418,-0.42985114455223083,0.21826015412807465
1665946109328827000,0.500826904296875,-0.2790720760822296,-0.3901655077934265,0.16425345838069916
1665946109338909000,0.510908935546875,-0.3107146918773651,-0.40223681926727295,0.14828035235404968
1665946109348990000,0.520989990234375,-0.3256777822971344,-0.3456570506095886,0.14334531128406525
1665946109359071000,0.531071044921875,-0.278557687997818,-0.2482452690601349,0.14835764467716217
1665946109369151700,0.54115185546875,-0.22374685108661652,-0.23920230567455292,0.17026068270206451
1665946109379232800,0.551232666015625,-0.18110112845897675,-0.22777467966079712,0.21628250181674957
1665946109389314800,0.561314697265625,-0.15549995005130768,-0.21368688344955444,0.2712911367416382
1665946109399395800,0.571395751953125,-0.15498995780944824,-0.23233726620674133,0.3178980350494385
1665946109409477000,0.58147705078125,-0.18428969383239746,-0.15063759684562683,0.32744261622428894
1665946109419559000,0.591558837890625,-0.158640518784523,-0.07614313066005707,0.29189392924308777
1665946109429640000,0.601639892578125,-0.07455624639987946,-0.15812626481056213,0.28826022148132324
1665946109439721000,0.611720947265625,0.02531655691564083,-0.2958316504955292,0.3683699667453766
1665946109449802000,0.621802001953125,0.08028426766395569,-0.3032229542732239,0.4195953607559204
1665946109459884000,0.631884033203125,0.09933599084615707,-0.24463927745819092,0.42218101024627686
1665946109469965000,0.641965087890625,0.09171554446220398,-0.18353745341300964,0.3631129860877991
1665946109480046000,0.652046142578125,0.06669168174266815,-0.08211468905210495,0.31201091408729553
1665946109490126800,0.662126953125,0.04637053608894348,-0.06189701333642006,0.26156407594680786
1665946109500209000,0.672208984375,0.039901718497276306,-0.09345041215419769,0.1767524927854538
1665946109510290000,0.6822900390625,0.022658251225948334,-0.09967311471700668,0.09364666789770126
1665946109520371000,0.692370849609375,-0.015183934941887856,0.006810718681663275,0.061276741325855255
1665946109530452000,0.702451904296875,-0.03656436502933502,-0.029166553169488907,0.08994060754776001
1665946109540534000,0.712533935546875,-0.032123543322086334,-0.0058873300440609455,0.0686611533164978
1665946109550614800,0.72261474609375,-0.027888178825378418,-0.008379669860005379,0.06558313220739365
1665946109560695800,0.73269580078125,-0.032272275537252426,0.00860836822539568,0.05526764690876007
1665946109570776800,0.74277685546875,-0.030923914164304733,0.016444187611341476,0.017668072134256363
1665946109580859000,0.75285888671875,-0.024133920669555664,0.014190620742738247,-0.00575815886259079
1665946109590940000,0.76293994140625,-0.015720320865511894,-0.008959060534834862,0.018114741891622543
1665946109601021000,0.77302099609375,-0.01256900280714035,-0.023918036371469498,0.029627319425344467
1665946109611102000,0.78310205078125,-0.006303243804723024,-0.015150798484683037,0.005213117226958275
1665946109621184000,0.79318408203125,-0.004973261151462793,-0.00250238087028265,-0.02080943062901497
1665946109631265000,0.80326513671875,-0.010129401460289955,0.002676758449524641,-0.03345024213194847
1665946109641346000,0.813345947265625,-0.01768665388226509,0.0052403174340724945,-0.025181125849485397
1665946109651427000,0.823427001953125,-0.02057313174009323,0.003239016281440854,-0.0055679501965641975
1665946109661509000,0.833509033203125,-0.01941945031285286,-0.0004667723551392555,0.018770944327116013
1665946109671590000,0.84358984375,-0.015783164650201797,0.0007541097584180534,0.01888294517993927
1665946109681671000,0.8536708984375,-0.013460889458656311,0.004862568341195583,0.010251374915242195
1665946109691753000,0.8637529296875,-0.016912028193473816,0.004349917639046907,0.013707654550671577
1665946109701834000,0.873833984375,-0.020887063816189766,0.0038598962128162384,0.023876402527093887
1665946109711915000,0.8839150390625,-0.022588301450014114,0.0012367705348879099,0.03073214739561081
1665946109721995800,0.893995849609375,-0.01877731829881668,0.007970573380589485,0.035155925899744034
1665946109732077800,0.904077880859375,-0.008865680545568466,0.0048669506795704365,0.03523644059896469
1665946109742158800,0.914158935546875,-0.0012098918668925762,-0.0018671187572181225,0.036532334983348846
1665946109752239900,0.924239990234375,-0.007468320429325104,-0.0015171794220805168,0.021021820604801178
1665946109762321000,0.93432080078125,-0.019859209656715393,0.005965237971395254,0.018036149442195892
1665946109772403000,0.94440283203125,-0.03049192950129509,0.012634850107133389,0.0319516696035862
1665946109782483700,0.954483642578125,-0.05680263042449951,0.044173602014780045,0.08028244972229004
1665946109792565000,0.96456494140625,-0.08371098339557648,0.07222351431846619,0.13352170586585999
1665946109802646000,0.97464599609375,-0.11015217751264572,0.10731971263885498,0.17190957069396973
1665946109812727800,0.984727783203125,-0.0816556066274643,0.06103210523724556,0.15458647906780243
1665946109822809000,0.99480908203125,-0.07543392479419708,0.05839770659804344,0.1094762533903122
1665946109832890000,1.00489013671875,-0.08919707685709,0.14063458144664764,0.08617468923330307
1665946109842971000,1.014970947265625,-0.11332877725362778,0.2087683528661728,0.0845019593834877
1665946109853053000,1.025052978515625,-0.1295567899942398,0.22818151116371155,0.05589718371629715
1665946109863134000,1.035134033203125,-0.14106963574886322,0.20370332896709442,0.005859050899744034
1665946109873215000,1.045215087890625,-0.2261434644460678,0.2720392048358917,-0.01669948920607567
1665946109883296000,1.0552958984375,-0.36870649456977844,0.37650755047798157,0.08331871777772903
1665946109893378000,1.0653779296875,-0.38370195031166077,0.3854193389415741,0.2482176274061203
1665946109903458800,1.075458740234375,-0.3511093854904175,0.36881664395332336,0.2893996834754944
1665946109913539800,1.085539794921875,-0.3322899341583252,0.3294566869735718,0.33707505464553833
1665946109923622000,1.095621826171875,-0.3911561667919159,0.21121659874916077,0.4457722306251526
1665946109933703000,1.105702880859375,-0.35918477177619934,0.1060716062784195,0.644231915473938
1665946109943784000,1.115783935546875,-0.23659732937812805,-0.04293784871697426,0.9030107259750366
1665946109953864700,1.12586474609375,-0.1590372622013092,-0.08993940055370331,1.0334008932113647
1665946109963946800,1.13594677734375,-0.11385514587163925,0.17419585585594177,0.830275297164917
1665946109974027800,1.14602783203125,0.16592702269554138,-0.03904416412115097,0.8263028860092163
1665946109984108800,1.15610888671875,0.3447851538658142,-0.24900592863559723,0.8271484375
1665946109994190000,1.166190185546875,0.4037621319293976,-1.0086274147033691,0.3576405644416809
1665946110004271900,1.17627197265625,0.4041917026042938,-1.4796077013015747,0.1690879911184311
1665946110014353200,1.186353271484375,0.5075133442878723,-1.0274332761764526,0.5016343593597412
1665946110024434000,1.196433837890625,0.6060782670974731,-0.36177611351013184,0.8864901661872864
1665946110034515000,1.206514892578125,0.7581906318664551,-0.4254612922668457,1.0090664625167847
1665946110044597000,1.216596923828125,0.9690703749656677,-0.8247727155685425,1.0966986417770386
1665946110054678000,1.226677978515625,1.1721910238265991,-0.9465237259864807,1.3155988454818726
1665946110064759000,1.236759033203125,1.3665754795074463,-0.8212166428565979,1.5570530891418457
1665946110074839800,1.24683984375,1.4118101596832275,-0.755292534828186,1.6777490377426147
1665946110084921900,1.256921875,0.9607647061347961,-0.8544188737869263,1.661548137664795
1665946110095003000,1.2670029296875,0.42059093713760376,-0.4396668076515198,1.6203418970108032
1665946110105084000,1.277083984375,0.027217306196689606,-0.2665829062461853,1.5885164737701416
1665946110115166000,1.287166015625,-0.012146024033427238,-0.1472601592540741,1.5907739400863647
1665946110125247000,1.2972470703125,0.0017881686799228191,-0.051676373928785324,1.608821988105774
1665946110135327700,1.30732763671875,0.054856039583683014,0.012429262511432171,1.5032150745391846
1665946110145408800,1.31740869140625,0.11013713479042053,0.13571657240390778,1.3957964181900024
1665946110155490800,1.32749072265625,0.13052873313426971,0.0501774437725544,1.2553209066390991
1665946110165571800,1.33757177734375,0.09998253732919693,-0.2089308202266693,1.0652722120285034
1665946110175652900,1.34765283203125,-0.007813612930476665,-0.3171623647212982,0.8697155117988586
1665946110185734100,1.357734130859375,-0.15508215129375458,-0.19703277945518494,0.7017531394958496
1665946110195816000,1.36781591796875,-0.2344246208667755,-0.025357993319630623,0.5506397485733032
1665946110205897000,1.37789697265625,-0.17124032974243164,0.016076264902949333,0.3967229127883911
1665946110215978000,1.38797802734375,-0.0016908454708755016,0.09232112765312195,0.27135616540908813
1665946110226060000,1.39806005859375,0.157710000872612,0.07768013328313828,0.1716625839471817
1665946110236141000,1.40814111328125,0.21883878111839294,-0.013189204037189484,0.07222981750965118
1665946110246222000,1.41822216796875,0.20447209477424622,0.056657519191503525,-0.03754035383462906
1665946110256302800,1.428302734375,0.14037153124809265,0.18128859996795654,-0.11057958751916885
1665946110266385000,1.438385009765625,0.04308918118476868,0.1118868812918663,-0.18756571412086487
1665946110276466000,1.4484658203125,-0.007299602497369051,0.15061041712760925,-0.20678278803825378
1665946110286547000,1.458546875,0.0432828813791275,0.23603077232837677,-0.16578608751296997
1665946110296628000,1.4686279296875,0.17161230742931366,0.3694166839122772,-0.03744959831237793
1665946110306710000,1.4787099609375,0.3491276800632477,0.6442197561264038,0.12393929064273834
1665946110316790800,1.488790771484375,0.5167579650878906,0.7888821959495544,0.2622057795524597
1665946110326871800,1.498871826171875,0.6786922812461853,0.4842125475406647,0.3623766303062439
1665946110336953900,1.508953857421875,0.7298620343208313,0.030856672674417496,0.42657575011253357
1665946110347035000,1.519034912109375,0.5867112874984741,-0.18218716979026794,0.3746076226234436
1665946110357116000,1.529115966796875,0.3631090223789215,-0.2158619463443756,0.21120603382587433
1665946110367197000,1.539197021484375,0.18003161251544952,-0.2749345898628235,0.26608073711395264
1665946110377279000,1.549279052734375,0.09036044031381607,-0.1570315957069397,0.4268949627876282
1665946110387359700,1.55935986328125,0.07831043750047684,0.07139971852302551,0.4823073744773865
1665946110397441000,1.56944091796875,0.19874589145183563,0.20885564386844635,0.4492535889148712
1665946110407522800,1.579522705078125,0.30754294991493225,0.6408510208129883,0.31211918592453003
1665946110417604000,1.58960400390625,0.3263273537158966,0.8371321558952332,0.11865866184234619
1665946110427684600,1.5996845703125,0.38644713163375854,0.7237030267715454,-0.0463409461081028
1665946110437765600,1.609765625,0.45883607864379883,0.6242724061012268,-0.17991167306900024
1665946110447847700,1.61984765625,0.5204970240592957,0.6561943888664246,-0.29317086935043335
1665946110457928400,1.629928466796875,0.5933193564414978,0.7772839069366455,-0.4001277685165405
1665946110468009500,1.640009521484375,0.6737593412399292,0.8018600940704346,-0.480337917804718
1665946110478090500,1.650090576171875,0.7211187481880188,0.7907149195671082,-0.5258270502090454
1665946110488172500,1.660172607421875,0.7183570265769958,0.7446896433830261,-0.568447470664978
1665946110498253600,1.670253662109375,0.714552104473114,0.8030554056167603,-0.6456310153007507
1665946110508334300,1.680334228515625,0.7339699864387512,0.8697305917739868,-0.77830970287323
1665946110518416400,1.69041650390625,0.7224525809288025,0.8610298037528992,-0.9051005840301514
1665946110528497400,1.700497314453125,0.646729588508606,0.8482876420021057,-1.0421795845031738
1665946110538578400,1.710578369140625,0.5773375034332275,0.8324815034866333,-1.1651681661605835
1665946110548659500,1.720659423828125,0.5510824918746948,0.7446075677871704,-1.201755404472351
1665946110558741500,1.730741455078125,0.5001852512359619,0.8268944025039673,-1.1472831964492798
1665946110568822500,1.740822509765625,0.5471511483192444,0.9353756308555603,-1.1304740905761719
1665946110578903600,1.750903564453125,0.5893771648406982,0.9079767465591431,-1.065463662147522
1665946110588984600,1.760984619140625,0.5601058006286621,0.7817668914794922,-0.967729926109314
1665946110599066400,1.77106640625,0.4500238001346588,0.7158010601997375,-0.8098669052124023
1665946110609147600,1.781147705078125,0.43104079365730286,0.5135486125946045,-0.6449781060218811
1665946110619228700,1.791228759765625,0.5114043951034546,0.3492327332496643,-0.570361316204071
1665946110629310700,1.801310791015625,0.5138025879859924,0.37979036569595337,-0.5625483989715576
1665946110639391500,1.8113916015625,0.48670390248298645,0.41643059253692627,-0.5524671673774719
1665946110649472500,1.821472412109375,0.432824969291687,0.34328287839889526,-0.49197107553482056
1665946110659553500,1.831553466796875,0.37211981415748596,0.2513183355331421,-0.39833563566207886
1665946110669635600,1.841635498046875,0.3426505923271179,0.1874634474515915,-0.27111804485321045
1665946110679716600,1.851716552734375,0.35584431886672974,0.14110839366912842,-0.13860853016376495
1665946110689797400,1.86179736328125,0.3792282044887543,0.05969636142253876,-0.024702198803424835
1665946110699879400,1.87187939453125,0.3469061851501465,0.09399005770683289,0.007722707465291023
1665946110709960400,1.88196044921875,0.296428382396698,0.10398783534765244,0.011475900188088417
1665946110720041500,1.89204150390625,0.2389414757490158,0.016426358371973038,0.015180560760200024
1665946110730122500,1.90212255859375,0.26879310607910156,-0.05119902268052101,0.040140241384506226
1665946110740204500,1.91220458984375,0.3207551836967468,0.07920768111944199,0.015599093399941921
1665946110750285600,1.92228564453125,0.3306901156902313,0.11947654187679291,-0.06482384353876114
1665946110760366300,1.932366455078125,0.3153126835823059,-0.011189693585038185,-0.11877141147851944
1665946110770448400,1.942448486328125,0.23986372351646423,-0.11218981444835663,-0.20310331881046295
1665946110780529400,1.952529296875,0.1631125658750534,-0.09526287764310837,-0.26422828435897827
1665946110790610400,1.9626103515625,0.1324758231639862,-0.036396365612745285,-0.301861435174942
1665946110800691700,1.972691650390625,0.1315852701663971,0.00040266074938699603,-0.2717013955116272
1665946110810773500,1.9827734375,0.10784398019313812,-0.016713475808501244,-0.22729423642158508
1665946110820854500,1.9928544921875,0.06891331076622009,0.029906747862696648,-0.23099367320537567
1665946110830935600,2.002935546875,0.0708576887845993,-0.022346070036292076,-0.228374183177948
1665946110841017600,2.013017578125,0.09962855279445648,0.03410765528678894,-0.2804873585700989
1665946110851098600,2.0230986328125,0.07806626707315445,-0.032535020262002945,-0.2790002226829529
1665946110861179600,2.0331796875,0.06187421455979347,0.003458702005445957,-0.2702573537826538
1665946110871260400,2.043260498046875,0.03983016684651375,-0.09240817278623581,-0.19691631197929382
1665946110881342500,2.053342529296875,0.0006675152108073235,-0.08207489550113678,-0.1360311508178711
1665946110891423500,2.063423583984375,-0.012528181076049805,-0.11801798641681671,-0.06618042290210724
1665946110901504500,2.07350439453125,-0.007634761743247509,-0.09323551505804062,-0.025276731699705124
1665946110911586600,2.083586669921875,0.01897820644080639,-0.09290528297424316,-0.0026366673409938812
1665946110921667600,2.09366748046875,0.030052293092012405,-0.08516745269298553,-0.015247885137796402
1665946110931748400,2.103748291015625,0.03848306089639664,-0.07542267441749573,-0.04320335388183594
1665946110941829400,2.113829345703125,0.06670410186052322,-0.22783325612545013,-0.029150620102882385
1665946110951911400,2.123911376953125,0.0770944207906723,-0.15527063608169556,-0.05974767729640007
1665946110961992400,2.133992431640625,0.041864871978759766,-0.04129251465201378,-0.07969111949205399
1665946110972073500,2.144073486328125,0.0392291434109211,-0.2105126976966858,-0.039245955646038055
1665946110982155500,2.154155517578125,0.03177087381482124,-0.23386965692043304,-0.024576522409915924
1665946110992236500,2.164236572265625,0.01430160365998745,-0.07817886769771576,-0.04524558037519455
1665946111002317300,2.1743173828125,0.051174819469451904,-0.11026779562234879,-0.026340778917074203
1665946111012398600,2.184398681640625,0.09035977721214294,-0.32774022221565247,0.012668670155107975
1665946111022480400,2.19448046875,0.09281710535287857,-0.2453066110610962,0.0297590009868145
1665946111032561700,2.204561767578125,0.08772461116313934,0.01416277326643467,-0.033333949744701385
1665946111042642700,2.214642578125,0.06409593671560287,-0.0041822027415037155,-0.01272045448422432
1665946111052724500,2.224724365234375,0.0442841500043869,-0.1034478098154068,0.027641350403428078
1665946111062805500,2.234805419921875,0.030405092984437943,-0.16505753993988037,0.038518376648426056
1665946111072886500,2.244886474609375,0.06512579321861267,-0.0013908499386161566,0.021554572507739067
1665946111082967600,2.254967529296875,0.0858990028500557,0.057235848158597946,0.023230381309986115
1665946111093049600,2.265049560546875,0.08559353649616241,-0.07473709434270859,0.021252185106277466
1665946111103130600,2.275130615234375,0.05179062858223915,-0.032414305955171585,0.05782848224043846
1665946111113211400,2.28521142578125,0.045242711901664734,0.04754257574677467,0.027538221329450607
1665946111123293400,2.29529345703125,0.02368534356355667,0.06481217592954636,0.004024963825941086
1665946111133374500,2.30537451171875,0.015457507222890854,0.015081104822456837,0.0008917553350329399
1665946111143455500,2.31545556640625,0.006466573569923639,-0.023112371563911438,-0.014577006921172142
1665946111153536500,2.32553662109375,0.005107029806822538,-0.046258434653282166,-0.02871093712747097
1665946111163618600,2.33561865234375,0.01197783276438713,-0.05540243163704872,-0.01559468638151884
1665946111173699600,2.345699462890625,0.006153232883661985,-0.03475654125213623,0.01395388413220644
1665946111183780400,2.3557802734375,0.012620401568710804,0.01195476297289133,0.05084902420639992
1665946111193862400,2.3658623046875,0.018309179693460464,0.06118888780474663,0.0770324245095253
1665946111203943400,2.375943359375,0.01034783199429512,0.07242190837860107,0.09253743290901184
1665946111214024400,2.3860244140625,-0.02184366062283516,0.014921598136425018,0.09061649441719055
1665946111224105500,2.39610546875,-0.04591846466064453,-0.051894109696149826,0.07275529950857162
1665946111234187500,2.4061875,-0.07617836445569992,-0.04552942141890526,0.030997730791568756
1665946111244268500,2.4162685546875,-0.0897689163684845,-0.06329793483018875,0.014147677458822727
1665946111254349600,2.426349609375,-0.11458452045917511,-0.1073162630200386,0.028766833245754242
1665946111264431400,2.436431396484375,-0.19664162397384644,-0.14535920321941376,0.05651522055268288
1665946111274512600,2.4465126953125,-0.2983829081058502,-0.20606063306331635,0.09774415194988251
1665946111284593700,2.45659375,-0.3022878170013428,-0.2129024714231491,0.14720095694065094
1665946111294674400,2.46667431640625,-0.16157305240631104,-0.13031332194805145,0.16104699671268463
1665946111304756500,2.476756591796875,-0.047851793467998505,-0.005227524321526289,0.10702423751354218
1665946111314837500,2.48683740234375,-0.008350720629096031,0.045027390122413635,0.03498120233416557
1665946111324918500,2.49691845703125,0.007400743663311005,0.04655386134982109,-0.02925373986363411
1665946111335000600,2.50700048828125,-0.0038303392939269543,0.030997537076473236,-0.08236277103424072
1665946111345081600,2.51708154296875,-0.011386165395379066,0.025952637195587158,-0.0991266518831253
1665946111355162600,2.52716259765625,-0.026460986584424973,0.046153515577316284,-0.09326716512441635
1665946111365243400,2.537243408203125,-0.03889548406004906,0.05569274351000786,-0.06686508655548096
1665946111375325400,2.547325439453125,-0.05522492155432701,0.0465804748237133,-0.010754147544503212
1665946111385406500,2.557406494140625,-0.06195610761642456,0.02148626372218132,0.03815734013915062
1665946111395487500,2.567487548828125,-0.055182360112667084,0.00902586616575718,0.0768677145242691
1665946111405569500,2.577569580078125,-0.046998847275972366,0.012816137634217739,0.08459345996379852
1665946111415650600,2.587650634765625,-0.048550404608249664,0.041584666818380356,0.0634722039103508
1665946111425731000,2.59773095703125,-0.04732460528612137,0.05321681499481201,0.032497212290763855
1665946111435813000,2.607813232421875,-0.03468896821141243,0.05158509314060211,0.009192956611514091
1665946111445894100,2.61789404296875,-0.02584414929151535,0.027879444882273674,-0.003872809000313282
1665946111455975200,2.62797509765625,-0.019899971783161163,0.01954614743590355,-0.01852738857269287
1665946111466056200,2.63805615234375,-0.025623373687267303,0.0015791316982358694,-0.03060641884803772
1665946111476138200,2.64813818359375,-0.022241156548261642,0.014607848599553108,-0.035217683762311935
1665946111486219300,2.65821923828125,-0.01439809799194336,0.035367995500564575,-0.02168373577296734
1665946111496300300,2.66830029296875,-0.017433302477002144,0.04754796251654625,-0.004623526707291603
1665946111506382300,2.67838232421875,-0.028369605541229248,0.03556244447827339,0.011833986267447472
1665946111516463000,2.688463134765625,-0.04392646253108978,0.023975027725100517,0.02597324177622795
1665946111526544100,2.698544189453125,-0.059156641364097595,0.00597426388412714,0.04139808937907219
1665946111536625200,2.708625244140625,-0.07651939243078232,-0.025297371670603752,0.04658592864871025
1665946111546707200,2.718707275390625,-0.10230536758899689,-0.07143755257129669,0.04207098111510277
1665946111556788200,2.728788330078125,-0.13973583281040192,-0.13054774701595306,0.039519406855106354
1665946111566869000,2.738868896484375,-0.20311635732650757,-0.20809125900268555,0.04125581681728363
1665946111576951000,2.748950927734375,-0.29780903458595276,-0.276868999004364,0.035871170461177826
1665946111587032000,2.759031982421875,-0.4065935015678406,-0.329528272151947,0.023678865283727646
1665946111597113000,2.769113037109375,-0.5112676620483398,-0.3514098823070526,0.021330222487449646
1665946111607195100,2.779195068359375,-0.6354836225509644,-0.3679617941379547,0.012602634727954865
1665946111617276200,2.789276123046875,-0.7469052672386169,-0.4369203746318817,-0.016821034252643585
1665946111627357200,2.799357177734375,-0.8305542469024658,-0.41712233424186707,-0.07295295596122742
1665946111637438000,2.80943798828125,-0.8299787640571594,-0.810235857963562,0.07307056337594986
1665946111647520000,2.81952001953125,-0.9036402702331543,-0.9490979909896851,0.18725979328155518
1665946111657601000,2.82960107421875,-1.0625910758972168,-0.8671272397041321,0.2321324497461319
1665946111667682000,2.83968212890625,-1.2849892377853394,-0.7717547416687012,0.32161515951156616
1665946111677764000,2.84976416015625,-1.4568334817886353,-0.780213475227356,0.43697768449783325
1665946111687845000,2.85984521484375,-1.5733317136764526,-0.7338764071464539,0.5871756672859192
1665946111697926100,2.869926025390625,-1.7213358879089355,-0.7343810200691223,0.752836287021637
1665946111708008000,2.880008056640625,-1.9034451246261597,-0.8793112635612488,0.8861888647079468
1665946111718089200,2.890089111328125,-2.1464102268218994,-1.0742714405059814,0.9340860843658447
1665946111728170200,2.900170166015625,-2.3797073364257812,-1.2223026752471924,0.949023962020874
1665946111738251300,2.910251220703125,-2.5464556217193604,-1.3762565851211548,0.9838365316390991
1665946111748333300,2.920333251953125,-2.542249917984009,-1.4499610662460327,1.0112212896347046
1665946111758414000,2.9304140625,-2.3544936180114746,-1.3180339336395264,0.9775526523590088
1665946111768495000,2.9404951171875,-2.0907764434814453,-1.0004780292510986,0.9186891317367554
1665946111778577200,2.9505771484375,-1.8044170141220093,-0.585404634475708,0.8772799372673035
1665946111788658200,2.960658203125,-1.52755868434906,-0.01755490154027939,0.8485013842582703
1665946111798739200,2.9707392578125,-1.1615581512451172,0.6631804704666138,0.876024067401886
1665946111808821200,2.9808212890625,-0.8151932954788208,1.0006178617477417,0.9549897313117981
1665946111818902000,2.990902099609375,-0.5040830969810486,1.0221729278564453,0.9902063012123108
1665946111828983000,3.000983154296875,-0.2247859090566635,0.9014661908149719,0.9740594029426575
1665946111839064000,3.01106396484375,0.019040869548916817,0.8280441761016846,0.9130120277404785
1665946111849146000,3.02114599609375,0.21337750554084778,0.7851034998893738,0.8071396350860596
1665946111859227100,3.03122705078125,0.3643430471420288,0.662476122379303,0.6493505239486694
1665946111869308200,3.04130810546875,0.45742878317832947,0.5505120754241943,0.5613319873809814
1665946111879390200,3.05139013671875,0.5862435102462769,1.0574400424957275,1.3152174949645996
1665946111889471000,3.061470947265625,0.5699191689491272,1.1921777725219727,1.2081507444381714
1665946111899552000,3.071552001953125,0.5370357632637024,1.1043291091918945,1.1244696378707886
1665946111909634000,3.081634033203125,0.5087043642997742,1.0357575416564941,1.09986412525177
1665946111919715000,3.091715087890625,0.4461883008480072,1.1761926412582397,1.1776762008666992
1665946111929796000,3.101796142578125,0.3266115188598633,1.7719711065292358,1.670021414756775
1665946111939877000,3.111877197265625,0.0868375152349472,1.3359941244125366,1.6108273267745972
1665946111949959000,3.121958984375,-0.09529665112495422,0.2177971750497818,0.7321086525917053
1665946111960040200,3.132040283203125,-0.0651286244392395,-0.6810500621795654,-0.455029159784317
1665946111970121200,3.142121337890625,-0.08533580601215363,-1.103667140007019,-1.3113340139389038
1665946111980203300,3.152203369140625,-0.1929919570684433,-1.3029320240020752,-1.724672794342041
1665946111990284300,3.1622841796875,-0.15368416905403137,-1.4279487133026123,-1.9288067817687988
1665946112000365000,3.172364990234375,-0.3394036889076233,-0.9127753973007202,-1.7419698238372803
1665946112010447000,3.182447021484375,-0.8472607135772705,-0.13461856544017792,-0.6694049835205078
1665946112020528000,3.192528076171875,-0.9477042555809021,-0.3221498429775238,-0.1655256152153015
1665946112030609200,3.202609130859375,-0.9724150896072388,0.17054229974746704,0.3865394592285156
1665946112040690200,3.212690185546875,-0.8077630400657654,0.9044471383094788,0.8824453353881836
1665946112050772200,3.222772216796875,-0.5706945061683655,1.2778149843215942,1.1980923414230347
1665946112060853200,3.232853271484375,-0.18869070708751678,1.0234586000442505,1.167715072631836
1665946112070934000,3.24293408203125,0.10555826872587204,0.6179880499839783,0.8061864376068115
1665946112081016000,3.25301611328125,0.1927299052476883,0.17601247131824493,0.2949095666408539
1665946112091097000,3.26309716796875,0.11922337114810944,-0.21068572998046875,-0.23714877665042877
1665946112101178000,3.27317822265625,-0.03613346070051193,-0.42772534489631653,-0.6240552663803101
1665946112111260200,3.28326025390625,-0.10646932572126389,-0.3697245717048645,-0.8113284111022949
1665946112121341200,3.293341064453125,-0.13130488991737366,-0.3930501341819763,-0.9061774015426636
1665946112131422000,3.303421875,-0.07089550048112869,-0.37388214468955994,-0.8894640207290649
1665946112141503000,3.3135029296875,0.06484448164701462,-0.27907443046569824,-0.8233917951583862
1665946112151585000,3.3235849609375,0.2077292948961258,-0.12227135896682739,-0.7387735247612
1665946112161666000,3.333666015625,0.32436004281044006,0.021930288523435593,-0.6332881450653076
1665946112171747300,3.343747314453125,0.4179213345050812,0.10429830849170685,-0.5243086814880371
1665946112181829000,3.3538291015625,0.49103787541389465,0.12741054594516754,-0.4283376634120941
1665946112191910100,3.36391015625,0.5372328162193298,0.1288681924343109,-0.34751245379447937
1665946112201991200,3.3739912109375,0.5396384596824646,0.14066971838474274,-0.267852246761322
1665946112212073000,3.384072998046875,0.4892558157444,0.1996121108531952,-0.18915405869483948
1665946112222154200,3.394154296875,-0.7468061447143555,-0.8159931302070618,-1.3259345293045044
1665946112232235300,3.4042353515625,-0.9658998847007751,0.38054758310317993,-0.8212369084358215
1665946112242317300,3.4143173828125,-0.4678959250450134,1.2111659049987793,-0.043248750269412994
1665946112252398300,3.4243984375,-0.3829306364059448,0.8725447654724121,-0.28264519572257996
1665946112262479000,3.43447900390625,-0.12812604010105133,0.6164000630378723,-0.46695777773857117
1665946112272561200,3.44456103515625,0.1659705936908722,-0.01046258956193924,-1.1527539491653442
1665946112282642200,3.45464208984375,0.3333638608455658,-0.17984814941883087,-1.943337321281433
1665946112292723200,3.46472314453125,0.5250580310821533,0.7229219675064087,-2.5329713821411133
1665946112302804200,3.47480419921875,0.7272830009460449,1.9659165143966675,-2.8160853385925293
1665946112312886300,3.48488623046875,0.9508946537971497,3.1259632110595703,-2.354283332824707
1665946112322967000,3.494967041015625,0.7917596101760864,2.833313226699829,-1.5311673879623413
1665946112333048000,3.505048095703125,0.2491794228553772,1.857438325881958,-0.6402097344398499
1665946112343130000,3.515130126953125,0.35264456272125244,0.045731961727142334,0.7219289541244507
1665946112353211100,3.525211181640625,0.6977556347846985,-1.374889612197876,1.2900383472442627
1665946112363292200,3.535292236328125,0.7044572234153748,-1.5076911449432373,1.2661412954330444
1665946112373374200,3.545374267578125,-0.3161514699459076,-0.4536554515361786,0.7977873086929321
1665946112383455000,3.555455078125,-1.8038324117660522,-0.3884013593196869,-0.1514309197664261
1665946112393536000,3.565535888671875,-2.202808141708374,-0.21379277110099792,-0.18783846497535706
1665946112403618000,3.5756181640625,-2.037713050842285,1.0246613025665283,0.4859391748905182
1665946112413699000,3.585698974609375,-1.845557451248169,1.2675237655639648,0.9045233726501465
1665946112423780600,3.595780517578125,-1.4987963438034058,0.6446110010147095,0.5975892543792725
1665946112433862700,3.605862548828125,-1.135796070098877,0.6649785041809082,0.3926265239715576
1665946112443943700,3.615943603515625,-0.6892158389091492,0.5672953128814697,0.3313557207584381
1665946112454024700,3.626024658203125,-0.22769831120967865,0.2625212073326111,0.33130016922950745
1665946112464106800,3.636106689453125,0.3480360805988312,0.11448672413825989,-0.01272297278046608
1665946112474187800,3.646187744140625,0.3560129404067993,0.49919140338897705,-0.39223402738571167
1665946112484268500,3.6562685546875,0.07454852014780045,1.1991300582885742,-0.6904955506324768
1665946112494350600,3.6663505859375,-0.1526930332183838,0.9628555774688721,-0.08766552060842514
1665946112504431600,3.676431640625,-0.16392357647418976,0.13981199264526367,0.33098578453063965
1665946112514513000,3.686512939453125,-0.10228241980075836,-0.07907872647047043,0.30623337626457214
1665946112524594000,3.696593994140625,-0.1289353370666504,0.05236317962408066,0.15663859248161316
1665946112534675700,3.70667578125,-0.18615390360355377,0.20179179310798645,0.10296975076198578
1665946112544756700,3.7167568359375,-0.23550574481487274,0.22780127823352814,0.14996735751628876
1665946112554837800,3.726837646484375,-0.24643121659755707,0.16174909472465515,0.2055893987417221
1665946112564919800,3.736919921875,-0.24097813665866852,0.0977192372083664,0.2531678378582001
1665946112575000800,3.747000732421875,-0.23810875415802002,0.03804927319288254,0.28710243105888367
1665946112585081900,3.757081787109375,-0.2507944405078888,-0.0034664778504520655,0.30965566635131836
1665946112595164000,3.767163818359375,-0.27757003903388977,-0.026143699884414673,0.32386448979377747
1665946112605245000,3.777244873046875,-0.30539581179618835,-0.01944877952337265,0.34248822927474976
1665946112615325700,3.78732568359375,-0.3325413763523102,-0.011536619625985622,0.3616836667060852
1665946112625407700,3.79740771484375,-0.35569116473197937,0.000687289924826473,0.3836027979850769
1665946112635488800,3.80748876953125,-0.37755733728408813,0.00747524481266737,0.4077996015548706
1665946112645569800,3.81756982421875,-0.40475353598594666,0.02056628093123436,0.4314476549625397
1665946112655651800,3.82765185546875,-0.4311516284942627,0.05323014780879021,0.44945505261421204
1665946112665732900,3.83773291015625,-0.4552460312843323,0.08444292098283768,0.4693286120891571
1665946112675813600,3.847813720703125,-0.47183147072792053,0.12416578829288483,0.49186769127845764
1665946112685895700,3.857895751953125,-0.5003437995910645,0.16370441019535065,0.49498334527015686
1665946112695976700,3.867976806640625,-0.5067179203033447,0.19839397072792053,0.5007467269897461
1665946112706057700,3.8780576171875,-0.5129222869873047,0.2337980419397354,0.510608971118927
1665946112716139800,3.888139892578125,-0.523503303527832,0.2559159994125366,0.5188380479812622
1665946112726220800,3.898220703125,-0.5388630628585815,0.270685076713562,0.5187075138092041
1665946112736301600,3.908301513671875,-0.552290678024292,0.2948121130466461,0.49926459789276123
1665946112746383600,3.918383544921875,-0.573226809501648,0.2967256009578705,0.4481779932975769
1665946112756464600,3.928464599609375,-0.5742008686065674,0.29621434211730957,0.39443841576576233
1665946112766545700,3.938545654296875,-0.5666435956954956,0.2918211817741394,0.33652451634407043
1665946112776627700,3.948627685546875,-0.544590413570404,0.2893836796283722,0.2818743884563446
1665946112786708700,3.958708740234375,-0.5154708623886108,0.26908907294273376,0.2368142306804657
1665946112796789800,3.968789794921875,-0.5092612504959106,0.17575033009052277,0.170363649725914
1665946112806871600,3.97887158203125,-0.49967870116233826,0.09453962743282318,0.08616460114717484
1665946112816952800,3.988952880859375,-0.48643919825553894,0.0382586233317852,-0.026021525263786316
1665946112827033900,3.999033935546875,-0.4357541799545288,0.02381736785173416,-0.17268846929073334
1665946112837115600,4.00911572265625,-0.3406267464160919,0.019933316856622696,-0.3263508081436157
1665946112847197000,4.019197021484375,-0.22210222482681274,0.03411971032619476,-0.4492572546005249
1665946112857278700,4.02927880859375,-0.12251120805740356,0.10190953314304352,-0.528634786605835
1665946112867360000,4.039360107421875,-0.052899643778800964,0.1622018963098526,-0.5829718112945557
1665946112877440800,4.049440673828125,0.014857390895485878,0.1456979513168335,-0.627381443977356
1665946112887522800,4.059522705078125,0.07269645482301712,0.0726303979754448,-0.6536812782287598
1665946112897603800,4.069603759765625,0.12024705111980438,-0.033887993544340134,-0.6735262274742126
1665946112907684900,4.079684814453125,0.1300347000360489,-0.15135949850082397,-0.7198324799537659
1665946112917767000,4.089766845703125,0.13326166570186615,-0.21186567842960358,-0.836234986782074
1665946112927848000,4.099847900390625,0.13468778133392334,-0.166705921292305,-1.0327198505401611
1665946112937928700,4.1099287109375,0.16887728869915009,-0.0385860875248909,-1.263367772102356
1665946112948010800,4.1200107421875,0.2657141089439392,0.0908786952495575,-1.4758310317993164
1665946112958091800,4.130091796875,0.3861461579799652,0.2810174226760864,-1.6399643421173096
1665946112968172800,4.1401728515625,0.48369455337524414,0.5266924500465393,-1.7535884380340576
1665946112978254800,4.1502548828125,0.5535503625869751,0.8180649280548096,-1.794978380203247
1665946112988335900,4.1603359375,0.6136674880981445,1.1435575485229492,-1.755020022392273
1665946112998416600,4.170416748046875,0.6296578049659729,1.3324615955352783,-1.706200361251831
1665946113008498700,4.180498779296875,0.6129518151283264,1.4251399040222168,-1.6634793281555176
1665946113018579700,4.190579833984375,0.5725131034851074,1.4966368675231934,-1.6326091289520264
1665946113028660700,4.20066064453125,0.5274614691734314,1.5869510173797607,-1.5962876081466675
1665946113038742800,4.21074267578125,0.4770934283733368,1.660719871520996,-1.563808798789978
1665946113048823800,4.22082373046875,0.4357459843158722,1.69352126121521,-1.5571770668029785
1665946113058904600,4.230904541015625,0.4345827102661133,1.7055330276489258,-1.5523755550384521
1665946113068986600,4.240986572265625,0.4324173033237457,1.748483419418335,-1.5578960180282593
1665946113079067600,4.251067626953125,0.41105231642723083,1.7068982124328613,-1.5534828901290894
1665946113089148700,4.261148681640625,0.4067862033843994,1.525586724281311,-1.541131615638733
1665946113099230700,4.271230712890625,0.4950425326824188,1.4802803993225098,-1.5040783882141113
1665946113109311700,4.281311767578125,0.5623962879180908,1.4812647104263306,-1.4460481405258179
1665946113119393800,4.291393798828125,0.5973352193832397,1.3545477390289307,-1.3851025104522705
1665946113129474600,4.301474609375,0.6384650468826294,1.1621698141098022,-1.3019109964370728
1665946113139555600,4.3115556640625,0.6951143741607666,1.0192066431045532,-1.1778175830841064
1665946113149637600,4.3216376953125,0.771437406539917,0.9887896180152893,-1.0418105125427246
1665946113159718700,4.33171875,0.8268755078315735,1.0888994932174683,-0.9229922890663147
1665946113169799700,4.341799560546875,0.8754523396492004,1.2402039766311646,-0.8272649645805359
1665946113179881700,4.3518818359375,0.9260048866271973,1.3773741722106934,-0.7408971786499023
1665946113189962800,4.361962646484375,0.9740179181098938,1.4721590280532837,-0.677923858165741
1665946113200043800,4.372043701171875,1.0174164772033691,1.5641735792160034,-0.6110007762908936
1665946113210125600,4.38212548828125,0.9981927275657654,1.5672236680984497,-0.552163302898407
1665946113220206800,4.392206787109375,0.9927117824554443,1.5638128519058228,-0.4914865493774414
1665946113230288000,4.402287841796875,0.9621325731277466,1.5495904684066772,-0.42708998918533325
1665946113240370000,4.412369873046875,0.9196152091026306,1.5096170902252197,-0.3510936200618744
1665946113250451000,4.422450927734375,0.8772451281547546,1.440838098526001,-0.2674511969089508
1665946113260532700,4.43253271484375,0.8358573913574219,1.363253116607666,-0.189146026968956
1665946113270613800,4.44261376953125,0.8048478364944458,1.2410467863082886,-0.12109401077032089
1665946113280694800,4.45269482421875,0.777853786945343,1.112682819366455,-0.0485854409635067
1665946113290776800,4.46277685546875,0.7546579241752625,1.003691554069519,0.031663328409194946
1665946113300857900,4.47285791015625,0.7618736624717712,0.9179990887641907,0.12852391600608826
1665946113310939000,4.48293896484375,0.7413225769996643,0.8364435434341431,0.22016887366771698
1665946113321021000,4.49302099609375,0.728095531463623,0.7844457626342773,0.3156958818435669
1665946113331101700,4.503101806640625,0.7298383116722107,0.7353522777557373,0.3991319239139557
1665946113341183700,4.513183837890625,0.7364640235900879,0.6847026944160461,0.47729727625846863
1665946113351264800,4.5232646484375,0.7293174266815186,0.6539216041564941,0.5493019819259644
1665946113361345800,4.533345703125,0.7037671208381653,0.6401376724243164,0.6148629188537598
1665946113371427800,4.543427734375,0.6631081104278564,0.6534827351570129,0.6829812526702881
1665946113381508900,4.5535087890625,0.6077398657798767,0.7027077078819275,0.755886435508728
1665946113391589600,4.563589599609375,0.5269448757171631,0.7527735233306885,0.8238646984100342
1665946113401671700,4.573671630859375,0.4273281395435333,0.78843092918396,0.8695376515388489
1665946113411752700,4.583752685546875,0.4093552827835083,0.8744941353797913,0.9208061695098877
1665946113421834800,4.593834716796875,0.3696199357509613,0.8933836221694946,0.9355635046958923
1665946113431915500,4.60391552734375,0.3226867914199829,0.9091596603393555,0.8983538150787354
1665946113441996500,4.61399658203125,0.2803010940551758,0.9621326327323914,0.8076514005661011
1665946113452078600,4.62407861328125,0.33477097749710083,1.0344406366348267,0.662774384021759
1665946113462159600,4.63415966796875,0.3131776452064514,1.121451497077942,0.4741528630256653
1665946113472240600,4.64424072265625,0.28826403617858887,1.2467119693756104,0.25905841588974
1665946113482322700,4.65432275390625,0.3854514956474304,1.3206002712249756,0.06679117679595947
1665946113492403700,4.66440380859375,0.4874577522277832,1.3489149808883667,-0.09313377737998962
1665946113502485800,4.67448583984375,0.6261835098266602,1.317507266998291,-0.1725335717201233
1665946113512566500,4.68456640625,0.6838116645812988,1.1597274541854858,-0.1832733005285263
1665946113522647600,4.6946474609375,0.7645145058631897,0.9014495611190796,-0.11901894956827164
1665946113532729600,4.7047294921875,0.9807482361793518,0.8271388411521912,0.11825138330459595
1665946113542810600,4.714810546875,1.0953925848007202,0.8789154887199402,0.39296552538871765
1665946113552891600,4.7248916015625,1.1013498306274414,0.7543250918388367,0.4922143518924713
1665946113562973700,4.7349736328125,1.069257140159607,0.5842916965484619,0.3694664537906647
1665946113573054500,4.745054443359375,0.9775967001914978,0.4441026449203491,0.2548229694366455
1665946113583136500,4.755136474609375,0.8949989080429077,0.3272150754928589,0.2561890780925751
1665946113593217500,4.765217529296875,0.8411082029342651,0.06810015439987183,0.3867500126361847
1665946113603298600,4.775298583984375,0.650038480758667,-0.22760573029518127,0.682172417640686
1665946113613380600,4.785380615234375,0.2923019230365753,0.058151975274086,0.7715883255004883
1665946113623461600,4.795461669921875,-0.25174206495285034,0.7330752015113831,0.5585805773735046
1665946113633543700,4.805543701171875,-0.839198112487793,1.1636899709701538,0.3151825964450836
1665946113643624400,4.81562451171875,-1.2363225221633911,0.9749298095703125,0.3162213861942291
1665946113653705500,4.82570556640625,-1.2992583513259888,0.493833988904953,0.670661449432373
1665946113663787500,4.83578759765625,-1.0531268119812012,-0.22806982696056366,1.2861268520355225
1665946113673868500,4.84586865234375,-0.6893947124481201,-0.8243862390518188,1.9310272932052612
1665946113683950600,4.85595068359375,-0.3251569867134094,-0.8875041007995605,2.3126935958862305
1665946113694031600,4.866031494140625,-0.15730486810207367,-0.6877883672714233,2.2525198459625244
1665946113704112600,4.876112548828125,-0.23845551908016205,-0.20960350334644318,1.7563605308532715
1665946113714194400,4.8861943359375,-0.4219824969768524,0.42066872119903564,1.0295915603637695
1665946113724275700,4.896275634765625,-0.43180426955223083,0.8642387390136719,0.583399772644043
1665946113734356700,4.906356689453125,-0.39159294962882996,1.1016533374786377,0.6219240427017212
1665946113744438500,4.9164384765625,-0.3940224349498749,1.254551649093628,0.9040175676345825
1665946113754519800,4.926519775390625,-0.37413421273231506,1.1058783531188965,1.1916024684906006
1665946113764601600,4.9366015625,-0.3755800127983093,0.7973588109016418,1.3352241516113281
1665946113774682600,4.9466826171875,-0.3608223497867584,0.5127052664756775,1.3731886148452759
1665946113784763600,4.956763671875,-0.3412635624408722,0.2839947044849396,1.3361283540725708
1665946113794845700,4.966845703125,-0.36201170086860657,0.03926565870642662,1.2371118068695068
1665946113804926700,4.9769267578125,-0.3601820170879364,-0.005144201219081879,1.177329182624817
1665946113815008800,4.9870087890625,-0.380648136138916,0.1093171238899231,1.1661354303359985
1665946113825089800,4.99708984375,-0.43085843324661255,0.16127800941467285,1.1479398012161255
1665946113835170800,5.0071708984375,-0.4772467017173767,0.24288338422775269,1.137697458267212
1665946113845252900,5.0172529296875,-0.5053048133850098,0.40010929107666016,1.1288931369781494
1665946113855333600,5.027333740234375,-0.4950135052204132,0.538500189781189,1.1310780048370361
1665946113865415700,5.037415771484375,-0.47236719727516174,0.6326369047164917,1.110811471939087
1665946113875496700,5.04749658203125,-0.4069461226463318,0.7209848761558533,1.0702173709869385
1665946113885577700,5.05757763671875,-0.4210105538368225,0.702118456363678,1.0103663206100464
1665946113895659800,5.06765966796875,-0.41086605191230774,0.6134229302406311,0.9542710781097412
1665946113905740800,5.07774072265625,-0.45091015100479126,0.47698378562927246,0.911416232585907
1665946113915822800,5.08782275390625,-0.43278494477272034,0.42394453287124634,0.8880525827407837
1665946113925903600,5.097903564453125,-0.4672997295856476,0.36842429637908936,0.8696645498275757
1665946113935984600,5.107984619140625,-0.4898793399333954,0.3162092864513397,0.8628069162368774
1665946113946066700,5.118066650390625,-0.5285754799842834,0.2631031274795532,0.8850111961364746
1665946113956147700,5.128147705078125,-0.5230230689048767,0.25883302092552185,0.9141115546226501
1665946113966229800,5.138229736328125,-0.5511850714683533,0.31126609444618225,0.9178153872489929
1665946113976310800,5.148310791015625,-0.5222194194793701,0.40733322501182556,0.9171102046966553
1665946113986391600,5.1583916015625,-0.49721434712409973,0.5103534460067749,0.9192509651184082
1665946113996473600,5.1684736328125,-0.5129203200340271,0.46273717284202576,0.915591299533844
1665946114006554600,5.1785546875,-0.49012380838394165,0.38910534977912903,0.8897402882575989
1665946114016636700,5.18863671875,-0.4757840037345886,0.301124632358551,0.8581783175468445
1665946114026717700,5.1987177734375,-0.46665048599243164,0.1689830720424652,0.8127424120903015
1665946114036798700,5.208798828125,-0.4390023648738861,0.051014892756938934,0.7436528205871582
1665946114046880800,5.218880859375,-0.416240394115448,-0.07690463960170746,0.666918158531189
1665946114056961500,5.22896142578125,-0.40144094824790955,-0.16197559237480164,0.5937549471855164
1665946114067043600,5.239043701171875,-0.38657036423683167,-0.23945452272891998,0.5502385497093201
1665946114077124600,5.24912451171875,-0.37487348914146423,-0.29406318068504333,0.5152168869972229
1665946114087205600,5.25920556640625,-0.37107500433921814,-0.2909007966518402,0.4828127920627594
1665946114097287700,5.26928759765625,-0.3548792600631714,-0.2524982690811157,0.4465828835964203
1665946114107368700,5.27936865234375,-0.3554750978946686,-0.16925974190235138,0.3844072222709656
1665946114117450800,5.28945068359375,-0.37282824516296387,-0.0936395600438118,0.30466046929359436
1665946114127531500,5.299531494140625,-0.3743325173854828,-0.04548218101263046,0.2288554310798645
1665946114137612500,5.309612548828125,-0.35439983010292053,0.03936693072319031,0.15895332396030426
1665946114147694600,5.319694580078125,-0.3210950791835785,0.15882690250873566,0.08623366057872772
1665946114157775600,5.329775634765625,-0.27425751090049744,0.2943572998046875,0.00803287047892809
1665946114167857700,5.339857666015625,-0.19166475534439087,0.40076661109924316,-0.06252318620681763
1665946114177938700,5.349938720703125,-0.04322628676891327,0.4801011383533478,-0.12039420753717422
1665946114188020700,5.360020751953125,0.14736030995845795,0.5406468510627747,-0.12409991025924683
1665946114198101500,5.3701015625,0.28509417176246643,0.5819767117500305,-0.1601702868938446
1665946114208182500,5.3801826171875,0.3378782272338867,0.6364962458610535,-0.2969682216644287
1665946114218264600,5.3902646484375,0.3652281165122986,0.6449741721153259,-0.5483368039131165
1665946114228345600,5.400345703125,0.37664100527763367,0.6354138851165771,-0.8733008503913879
1665946114238427600,5.410427734375,0.4056609272956848,0.5865270495414734,-1.219849705696106
1665946114248508700,5.4205087890625,0.4581362009048462,0.5306073427200317,-1.5419968366622925
1665946114258589700,5.430589599609375,0.5394416451454163,0.4178618788719177,-1.8489999771118164
1665946114268671700,5.440671630859375,0.5888671278953552,0.6053112149238586,-2.02470326423645
1665946114278752500,5.45075244140625,0.6651470065116882,0.6649993062019348,-2.12962007522583
1665946114288834600,5.46083447265625,0.73139488697052,0.5859321355819702,-2.197809934616089
1665946114298915600,5.47091552734375,0.7747167944908142,0.5074373483657837,-2.2120394706726074
1665946114308997600,5.48099755859375,0.7764922380447388,0.4706246554851532,-2.1598260402679443
1665946114319078700,5.49107861328125,0.7543091773986816,0.403728187084198,-2.0624048709869385
1665946114329159700,5.50115966796875,0.7422952055931091,0.3677349388599396,-1.9173039197921753
1665946114339241700,5.51124169921875,0.710321843624115,0.5346744060516357,-1.7912927865982056
1665946114349322500,5.521322509765625,0.7079500555992126,0.9230416417121887,-1.713902473449707
1665946114359404500,5.531404541015625,0.7349593043327332,1.0576838254928589,-1.7508690357208252
1665946114369485600,5.541485595703125,0.8262342214584351,0.8603942394256592,-1.8246816396713257
1665946114379567600,5.551567626953125,0.9618871212005615,0.780826210975647,-1.7919920682907104
1665946114389648600,5.561648681640625,1.083299160003662,0.7802914977073669,-1.714333415031433
1665946114399729700,5.571729736328125,1.182229995727539,0.8343081474304199,-1.6299713850021362
1665946114409811700,5.581811767578125,1.2415504455566406,0.9360373020172119,-1.5768507719039917
1665946114419892500,5.591892578125,1.2428783178329468,1.0791081190109253,-1.5304367542266846
1665946114429973800,5.601973876953125,1.1809301376342773,1.2475498914718628,-1.47113037109375
1665946114440054800,5.6120546875,1.137039065361023,1.3930189609527588,-1.4089524745941162
1665946114450136000,5.622135986328125,1.0758827924728394,1.4788832664489746,-1.3031237125396729
1665946114460217900,5.6322177734375,0.9764438271522522,1.4889580011367798,-1.182073712348938
1665946114470299000,5.642298828125,0.8927961587905884,1.4738634824752808,-1.0677850246429443
1665946114480381000,5.652380859375,0.8382671475410461,1.4737486839294434,-0.9706023931503296
1665946114490462000,5.6624619140625,0.7991122007369995,1.424612283706665,-0.878212571144104
1665946114500543700,5.672543701171875,0.770835816860199,1.3242582082748413,-0.7761090993881226
1665946114510624800,5.682624755859375,0.7515788078308105,1.2188949584960938,-0.652519166469574
1665946114520706000,5.6927060546875,0.752079963684082,1.1161017417907715,-0.5204586386680603
1665946114530787800,5.702787841796875,0.7368457317352295,0.973966658115387,-0.38202187418937683
1665946114540869000,5.712869140625,0.7212425470352173,0.8230016231536865,-0.253909170627594
1665946114550951000,5.722950927734375,0.7052856683731079,0.681861400604248,-0.14894527196884155
1665946114561032000,5.733031982421875,0.6605930328369141,0.508822500705719,-0.06685201078653336
1665946114571113700,5.74311376953125,0.6149663329124451,0.3395911157131195,0.02174646034836769
1665946114581194800,5.75319482421875,0.5482216477394104,0.1152365654706955,0.11722584813833237
1665946114591276800,5.76327685546875,0.5033208131790161,-0.08016553521156311,0.2334786355495453
1665946114601357800,5.77335791015625,0.43758150935173035,-0.24570150673389435,0.3670891523361206
1665946114611439000,5.783439208984375,0.34846851229667664,-0.4303278923034668,0.5169070959091187
1665946114621521000,5.79352099609375,0.2963493764400482,-0.5750717520713806,0.6811567544937134
1665946114631602000,5.803601806640625,0.28775718808174133,-0.639101505279541,0.8586466908454895
1665946114641683700,5.81368359375,0.1523146778345108,-0.7518602609634399,0.9974488019943237
1665946114651765000,5.823764892578125,0.05295038968324661,-0.8254057765007019,1.0580397844314575
1665946114661846800,5.8338466796875,0.005975957028567791,-0.8202642798423767,1.0753122568130493
1665946114671927800,5.843927734375,-0.06702255457639694,-0.7560805082321167,1.0568307638168335
1665946114682009000,5.854009033203125,-0.12251164019107819,-0.6521146893501282,0.9856375455856323
1665946114692091000,5.8640908203125,-0.07235631346702576,-0.4750867486000061,0.8577094674110413
1665946114702172200,5.874172119140625,-0.049725305289030075,-0.2237543910741806,0.6987206339836121
1665946114712253700,5.884253662109375,-0.009054005146026611,-0.018593639135360718,0.4957874119281769
1665946114722335000,5.8943349609375,0.1652432233095169,0.17195847630500793,0.2969323694705963
1665946114732416800,5.904416748046875,0.2960609197616577,0.2907329201698303,0.13391397893428802
1665946114742498000,5.914498046875,0.39489030838012695,0.26906147599220276,-0.02134457789361477
1665946114752579800,5.924579833984375,0.4778156876564026,0.16952602565288544,-0.160500630736351
1665946114762660900,5.934660888671875,0.5662262439727783,0.11307632923126221,-0.25983360409736633
1665946114772742100,5.9447421875,0.5882661938667297,0.15191903710365295,-0.32054439187049866
1665946114782824000,5.954823974609375,0.5999169945716858,0.2310684472322464,-0.33376139402389526
1665946114792905000,5.964905029296875,0.6395694613456726,0.3435123562812805,-0.2932925522327423
1665946114802986800,5.97498681640625,0.6778524518013,0.6572673320770264,-0.32835015654563904
1665946114813068000,5.985068115234375,0.6502613425254822,1.0990750789642334,-0.516236424446106
1665946114823149800,5.99514990234375,0.5819739103317261,1.058822512626648,-0.5487110614776611
1665946114833230800,6.00523095703125,0.6090327501296997,0.27706974744796753,-0.2912946939468384
1665946114843313000,6.01531298828125,0.8089937567710876,-0.7531938552856445,0.17398644983768463
1665946114853394000,6.025393798828125,0.8314654231071472,-1.5335451364517212,0.7694036960601807
1665946114863475000,6.035474853515625,0.5384385585784912,-1.5725250244140625,1.0843337774276733
1665946114873556700,6.045556640625,0.08359364420175552,-1.0402778387069702,1.0290145874023438
1665946114883638000,6.055637939453125,-0.46297487616539,-0.46649685502052307,0.7593205571174622
1665946114893719800,6.0657197265625,-0.9556367993354797,-0.23856261372566223,0.4792855679988861
1665946114903801000,6.075801025390625,-1.1903325319290161,-0.4070805013179779,0.38447117805480957
1665946114913883000,6.0858828125,-1.1790789365768433,-0.8291244506835938,0.533133327960968
1665946114923964000,6.0959638671875,-1.0259873867034912,-1.379043459892273,0.8766043782234192
1665946114934046000,6.1060458984375,-0.8099414110183716,-1.9087271690368652,1.2455477714538574
1665946114944126700,6.116126708984375,-0.5867487788200378,-2.191368341445923,1.4604132175445557
1665946114954208800,6.126208740234375,-0.4207773208618164,-2.250180244445801,1.4439826011657715
1665946114964289800,6.136289794921875,-0.31187400221824646,-2.1675708293914795,1.2370235919952393
1665946114974371000,6.14637109375,-0.26664724946022034,-2.004612684249878,0.9514619708061218
1665946114984452900,6.156452880859375,-0.18955539166927338,-1.8657788038253784,0.7349225282669067
1665946114994534000,6.166533935546875,-0.08995212614536285,-1.9089518785476685,0.683817446231842
1665946115004616000,6.176615966796875,0.011763053014874458,-2.065269947052002,0.7584860920906067
1665946115014697000,6.186697021484375,0.07347572594881058,-2.264888048171997,0.8516578078269958
1665946115024778800,6.19677880859375,0.08436007052659988,-2.4471399784088135,0.8877660036087036
1665946115034859800,6.20685986328125,0.08584827929735184,-2.5749542713165283,0.862143874168396
1665946115044941800,6.21694189453125,0.05282348394393921,-2.7783687114715576,0.81214439868927
1665946115055022800,6.22702294921875,-0.050410181283950806,-3.0333917140960693,0.7956876754760742
1665946115065105000,6.23710498046875,-0.13294793665409088,-3.114509105682373,0.8071824312210083
1665946115075186000,6.24718603515625,-0.2138776332139969,-3.0651214122772217,0.8346855044364929
1665946115085267000,6.257266845703125,-0.278404176235199,-2.9540345668792725,0.8088541626930237
1665946115095348700,6.2673486328125,-0.2973211705684662,-2.8422014713287354,0.7843858599662781
1665946115105429800,6.2774296875,-0.31851035356521606,-2.778916358947754,0.6916860342025757
1665946115115511800,6.28751171875,-0.3869040906429291,-2.6545631885528564,0.623347282409668
1665946115125592800,6.2975927734375,-0.38073140382766724,-2.488208293914795,0.567975640296936
1665946115135675000,6.3076748046875,-0.378955215215683,-2.3537044525146484,0.5100312829017639
1665946115145756000,6.317755859375,-0.3963211476802826,-2.1909241676330566,0.5143901109695435
1665946115155838000,6.327837890625,-0.3520168960094452,-2.139698028564453,0.49111953377723694
1665946115165918700,6.337918701171875,-0.34516456723213196,-2.1875312328338623,0.4603102207183838
1665946115176000800,6.348000732421875,-0.3354077935218811,-2.278592348098755,0.43416881561279297
1665946115186081800,6.358081787109375,-0.3179323971271515,-2.2597134113311768,0.45672526955604553
1665946115196162800,6.368162841796875,-0.2764072120189667,-2.1300649642944336,0.5176341533660889
1665946115206244900,6.378244873046875,-0.26016727089881897,-2.120784044265747,0.5102246403694153
1665946115216326000,6.388325927734375,-0.20250484347343445,-2.042997360229492,0.5154509544372559
1665946115226408000,6.398407958984375,-0.18317057192325592,-1.9770967960357666,0.46070167422294617
1665946115236488700,6.40848876953125,-0.1887376457452774,-1.867461919784546,0.37413376569747925
1665946115246570800,6.41857080078125,-0.1885797083377838,-1.8027186393737793,0.2772333323955536
1665946115256651800,6.42865185546875,-0.17966888844966888,-1.702223300933838,0.22378545999526978
1665946115266733800,6.43873388671875,-0.1679382026195526,-1.5922733545303345,0.18065078556537628
1665946115276814800,6.44881494140625,-0.1814391016960144,-1.543548583984375,0.12327773123979568
1665946115286897000,6.45889697265625,-0.15194272994995117,-1.514697790145874,0.10985832661390305
1665946115296978000,6.46897802734375,-0.13284465670585632,-1.5437911748886108,0.09933815896511078
1665946115307060000,6.47906005859375,-0.14528322219848633,-1.5844403505325317,0.08285771310329437
1665946115317140700,6.489140625,-0.1398971974849701,-1.609910011291504,0.029368070885539055
1665946115327221800,6.4992216796875,-0.12080340087413788,-1.6505181789398193,-0.03275122493505478
1665946115337303800,6.5093037109375,-0.11900626122951508,-1.6517969369888306,-0.09718328714370728
1665946115347384800,6.519384765625,-0.06623572111129761,-1.6395593881607056,-0.11869124323129654
1665946115357467000,6.529466796875,-0.042391471564769745,-1.5678139925003052,-0.116121806204319
1665946115367548000,6.5395478515625,-0.046171560883522034,-1.5210368633270264,-0.14112623035907745
1665946115377630000,6.5496298828125,-0.0635313093662262,-1.51218581199646,-0.19106990098953247
1665946115387710700,6.559710693359375,-0.0510685108602047,-1.5418579578399658,-0.22525769472122192
1665946115397792800,6.569792724609375,-0.07994157075881958,-1.619056224822998,-0.2774134874343872
1665946115407873800,6.579873779296875,-0.14174820482730865,-1.71245539188385,-0.40479329228401184
1665946115417955800,6.589955810546875,-0.10732657462358475,-1.7268891334533691,-0.545405387878418
1665946115428038000,6.600037841796875,-0.02526979148387909,-1.6969467401504517,-0.6936273574829102
1665946115438120000,6.610119873046875,0.171403706073761,-1.669148564338684,-0.7805811166763306
1665946115448200700,6.62020068359375,0.31926748156547546,-1.7270342111587524,-0.8667538166046143
1665946115458281700,6.63028173828125,0.4680849313735962,-1.7726463079452515,-0.9532772898674011
1665946115468363800,6.64036376953125,0.6114223599433899,-1.7097702026367188,-1.0412508249282837
1665946115478444800,6.65044482421875,0.6888840794563293,-1.5991066694259644,-1.239563226699829
1665946115488526800,6.66052685546875,0.7643013596534729,-1.3902122974395752,-1.6423256397247314
1665946115498607900,6.67060791015625,0.6715067625045776,-1.119236946105957,-2.115262746810913
1665946115508690000,6.68068994140625,0.5495246648788452,-0.9856535792350769,-2.5795233249664307
1665946115518770700,6.690770751953125,0.43108174204826355,-1.156721830368042,-2.9926328659057617
1665946115528852700,6.700852783203125,0.3590640127658844,-1.3570032119750977,-3.285168170928955
1665946115538933800,6.710933837890625,0.26065367460250854,-1.3359875679016113,-3.4264252185821533
1665946115549015800,6.721015869140625,0.1462051123380661,-1.1839133501052856,-3.452042818069458
1665946115559096800,6.731096923828125,0.1607680320739746,-0.9827384352684021,-3.280097723007202
1665946115569179000,6.741178955078125,0.20212770998477936,-0.7566286325454712,-2.937464952468872
1665946115579260000,6.751260009765625,0.24029536545276642,-0.9041265845298767,-2.6701486110687256
1665946115589342000,6.761342041015625,0.29620736837387085,-1.1898243427276611,-2.487795114517212
1665946115599422700,6.771422607421875,0.41242390871047974,-1.4917620420455933,-2.428679943084717
1665946115609503700,6.781503662109375,0.5207735896110535,-1.6192851066589355,-2.452578544616699
1665946115619585800,6.791585693359375,0.6298221945762634,-1.2708934545516968,-2.476583242416382
1665946115629666800,6.801666748046875,0.7141975164413452,-0.7360308766365051,-2.5185163021087646
1665946115639748900,6.811748779296875,0.7472500205039978,-0.28728604316711426,-2.5138163566589355
1665946115649830000,6.821829833984375,0.6945785880088806,0.04864269495010376,-2.4066665172576904
1665946115659912000,6.831911865234375,0.5846625566482544,0.2496287226676941,-2.2466979026794434
1665946115669992700,6.84199267578125,0.4899906516075134,0.4284552037715912,-2.067202568054199
1665946115680074800,6.85207470703125,0.39282307028770447,0.6085885763168335,-1.911595106124878
1665946115690155800,6.86215576171875,0.31357938051223755,0.7426100373268127,-1.7798850536346436
1665946115700237800,6.87223779296875,0.28863275051116943,0.8664216995239258,-1.6480811834335327
1665946115710318800,6.88231884765625,0.3144534230232239,0.9792028665542603,-1.5129598379135132
1665946115720401000,6.89240087890625,0.3611939549446106,1.059258222579956,-1.3952969312667847
1665946115730482000,6.90248193359375,0.39227625727653503,1.0360701084136963,-1.257028579711914
1665946115740563000,6.91256298828125,0.4211713671684265,1.0111206769943237,-1.1373729705810547
1665946115750644700,6.922644775390625,0.4448702931404114,0.9394451975822449,-1.03200101852417
1665946115760725800,6.932725830078125,0.46643534302711487,0.7791579365730286,-0.8873260021209717
1665946115770807800,6.942807861328125,0.4632813632488251,0.6215036511421204,-0.7090480923652649
1665946115780888800,6.952888916015625,0.4459061324596405,0.4863198697566986,-0.5115667581558228
1665946115790971000,6.962970947265625,0.43431469798088074,0.36700600385665894,-0.31062349677085876
1665946115801052000,6.973052001953125,0.4273287057876587,0.287619024515152,-0.08488832414150238
1665946115811134000,6.983134033203125,0.4054553508758545,0.2686932682991028,0.13237901031970978
1665946115821215000,6.993215087890625,0.3793381452560425,0.32034632563591003,0.32965147495269775
1665946115831296800,7.003296875,0.3591892123222351,0.3694496750831604,0.4953714907169342
1665946115841377800,7.013377685546875,0.32216811180114746,0.3009730279445648,0.6580871343612671
1665946115851459800,7.0234599609375,0.26248401403427124,0.14706653356552124,0.8438205718994141
1665946115861540900,7.033540771484375,0.18791384994983673,-0.0563337467610836,1.0572617053985596
1665946115871623000,7.043622802734375,0.14651447534561157,-0.2776903808116913,1.265018105506897
1665946115881704000,7.053703857421875,0.058368608355522156,-0.4776843190193176,1.451117992401123
1665946115891785000,7.063784912109375,-0.0714367926120758,-0.6098724007606506,1.5676581859588623
1665946115901867000,7.073866943359375,-0.20743553340435028,-0.6086121797561646,1.626564621925354
1665946115911947800,7.08394775390625,-0.26919662952423096,-0.39788317680358887,1.6306803226470947
1665946115922029800,7.09402978515625,-0.23761090636253357,-0.1525249034166336,1.5208454132080078
1665946115932110800,7.10411083984375,-0.1634296178817749,0.1750231385231018,1.2929376363754272
1665946115942193000,7.11419287109375,-0.06106264516711235,0.422054260969162,0.9160283207893372
1665946115952274000,7.12427392578125,0.05788078159093857,0.6666687726974487,0.4460946321487427
1665946115962356000,7.13435595703125,0.21931837499141693,0.8843461871147156,-0.006315955892205238
1665946115972437000,7.14443701171875,0.38307616114616394,1.0280885696411133,-0.3134375512599945
1665946115982518800,7.154518798828125,0.4805470407009125,1.0451955795288086,-0.5050626397132874
1665946115992599800,7.164599853515625,0.5782424211502075,1.0680590867996216,-0.6417142748832703
1665946116002681900,7.174681884765625,0.6999331712722778,1.1013922691345215,-0.7636202573776245
1665946116012763000,7.184762939453125,0.7806850075721741,1.1588371992111206,-0.896791934967041
1665946116022844700,7.1948447265625,0.9287815093994141,0.8061547875404358,-0.9478127360343933
1665946116032926000,7.204926025390625,1.0793910026550293,0.2331724762916565,-0.6300792694091797
1665946116043007700,7.2150078125,0.9168121218681335,-0.6511380076408386,-0.015054650604724884
1665946116053089000,7.225089111328125,0.8227482438087463,-1.5549049377441406,0.7331982851028442
1665946116063169800,7.235169677734375,0.653800368309021,-1.788406252861023,1.310185432434082
1665946116073251800,7.245251953125,0.24723316729068756,-1.100782036781311,1.295632243156433
1665946116083332900,7.255332763671875,-0.2109696865081787,0.2916127145290375,0.7191590666770935
1665946116093414700,7.26541455078125,-0.7992688417434692,1.5436710119247437,-0.0470891036093235
1665946116103496000,7.275495849609375,-1.2167761325836182,1.794390082359314,-0.30468636751174927
1665946116113577700,7.28557763671875,-1.2618790864944458,1.2670918703079224,0.053868867456912994
1665946116123659000,7.295658935546875,-1.1643483638763428,0.19056665897369385,0.6674831509590149
1665946116133740800,7.30574072265625,-0.9672014713287354,-0.847049355506897,1.250589370727539
1665946116143821800,7.31582177734375,-0.7299301028251648,-1.5924476385116577,1.7362463474273682
1665946116153903600,7.325903564453125,-0.513679563999176,-1.7827377319335938,1.9348089694976807
1665946116163985000,7.33598486328125,-0.3979557752609253,-1.3722984790802002,1.8071321249008179
1665946116174066700,7.346066650390625,-0.3195006251335144,-0.6874860525131226,1.4690641164779663
1665946116184147700,7.356147705078125,-0.2963823974132538,-0.08224119246006012,1.1435118913650513
1665946116194229800,7.366229736328125,-0.3442077040672302,0.2916746139526367,0.9711209535598755
1665946116204310800,7.376310791015625,-0.4713340103626251,0.4602975845336914,0.8776885867118835
1665946116214392800,7.386392822265625,-0.5918835997581482,0.5007238388061523,0.8556663990020752
1665946116224473600,7.3964736328125,-0.6899967789649963,0.3833281993865967,0.8758710026741028
1665946116234555000,7.406554931640625,-0.7077030539512634,0.18182680010795593,0.9436524510383606
1665946116244636700,7.41663671875,-0.6550434231758118,-0.06564746052026749,1.076586365699768
1665946116254718000,7.426718017578125,-0.5071556568145752,-0.2634393870830536,1.2345077991485596
1665946116264799700,7.4367998046875,-0.30282580852508545,-0.3447723388671875,1.317365288734436
1665946116274880800,7.446880859375,-0.18793171644210815,-0.360721230506897,1.2902343273162842
1665946116284962800,7.456962890625,-0.17364946007728577,-0.35439425706863403,1.2014951705932617
1665946116295043600,7.467043701171875,-0.15445420145988464,-0.33375874161720276,1.1616865396499634
1665946116305125600,7.477125732421875,-0.2231244146823883,-0.33024632930755615,1.1607069969177246
1665946116315206700,7.48720654296875,-0.34724530577659607,-0.3097780644893646,1.1767405271530151
1665946116325288700,7.497288818359375,-0.41632959246635437,-0.2940332293510437,1.1800967454910278
1665946133144337000,24.3163369140625,0.38298213481903076,0.4001719057559967,-0.30155184864997864
1665946133154418000,24.32641796875,0.340028315782547,0.5618516802787781,-0.17608068883419037
1665946133164498700,24.336498779296875,0.29389411211013794,0.6254878640174866,-0.05265675112605095
1665946133174580000,24.346580078125,0.2511049211025238,0.6000034809112549,-0.00854768231511116
1665946133184661000,24.356660888671875,0.23320262134075165,0.5393523573875427,0.0016959011554718018
1665946133194742000,24.366741943359376,0.21114219725131989,0.4966602921485901,0.015526672825217247
1665946133204823000,24.376822998046876,0.20698367059230804,0.4699338674545288,0.04142138734459877
1665946133214903800,24.38690380859375,0.23684264719486237,0.34030547738075256,0.04820847138762474
1665946133224985900,24.39698583984375,0.2563369870185852,0.28437644243240356,0.02605682983994484
1665946133235067000,24.40706689453125,0.2948862612247467,0.22361217439174652,0.05701415240764618
1665946133245148000,24.41714794921875,0.32707351446151733,0.07263196259737015,0.06012658774852753
1665946133255229000,24.42722900390625,0.3146485388278961,-0.10050852596759796,-0.0031605064868927
1665946133265309700,24.437309814453126,0.28507572412490845,-0.20851647853851318,-0.07789067178964615
1665946133275391000,24.447390869140627,0.2807653546333313,-0.16064368188381195,-0.15237700939178467
1665946133285472000,24.457471923828123,0.3130018413066864,0.015875156968832016,-0.21374477446079254
1665946133295553000,24.467552978515624,0.34545424580574036,0.2096484750509262,-0.25729265809059143
1665946133305634000,24.477634033203124,0.3724088966846466,0.345035582780838,-0.2919292151927948
1665946133315714800,24.48771484375,0.3995160758495331,0.44976726174354553,-0.3191012144088745
1665946133325796900,24.497796875,0.42173588275909424,0.527184784412384,-0.3290952444076538
1665946133335878000,24.5078779296875,0.4123396575450897,0.5582861304283142,-0.30777519941329956
1665946133345959000,24.517958984375,0.371825248003006,0.5375438332557678,-0.2506360113620758
1665946133356040000,24.5280400390625,0.3196834623813629,0.4736155569553375,-0.16957858204841614
1665946133366120700,24.53812060546875,0.2864176332950592,0.41865667700767517,-0.06839869916439056
1665946133376202000,24.548201904296874,0.3004590570926666,0.35228511691093445,0.016481902450323105
1665946133386283000,24.558282958984375,0.3242972791194916,0.3162890374660492,0.0776592344045639
1665946133396364000,24.568364013671875,0.3495425283908844,0.3531211018562317,0.15764263272285461
1665946133406445000,24.578445068359375,0.36197444796562195,0.3970097303390503,0.21736614406108856
1665946133416525800,24.58852587890625,0.37286049127578735,0.37513479590415955,0.2830089330673218
1665946133426607900,24.59860791015625,0.3641687333583832,0.3665756583213806,0.3568669259548187
1665946133436689000,24.60868896484375,0.419625848531723,0.4524635076522827,0.41300061345100403
1665946133446770200,24.618770263671873,0.48160186409950256,0.39145076274871826,0.4111316204071045
1665946133456851200,24.628851318359374,0.5163283348083496,0.2113226056098938,0.3631885349750519
1665946133466932200,24.63893212890625,0.5475546717643738,0.14185777306556702,0.29799407720565796
1665946133477013200,24.64901318359375,0.5787926912307739,0.1593157947063446,0.248511403799057
1665946133487094300,24.65909423828125,0.591647207736969,0.17826631665229797,0.19927914440631866
1665946133497175300,24.66917529296875,0.624906063079834,0.1689845323562622,0.1243266686797142
1665946133507256300,24.67925634765625,0.6499390006065369,0.21099670231342316,0.04277588799595833
1665946133517337300,24.68933740234375,0.6637689471244812,0.3033195734024048,-0.014340524561703205
1665946133527419400,24.69941943359375,0.6499378085136414,0.3505379557609558,-0.056500762701034546
1665946133537500200,24.709500244140624,0.5542231202125549,0.3487454354763031,-0.04902500659227371
1665946133547581200,24.719581298828125,0.358762264251709,0.3690275251865387,0.03710268810391426
1665946133557662200,24.729662109375,0.13331948220729828,0.2527605891227722,0.09533143043518066
1665946133567743200,24.7397431640625,-0.04523134604096413,0.1257626861333847,0.10928639769554138
1665946133577824300,24.74982421875,-0.13821810483932495,0.13098222017288208,0.10229460895061493
1665946133587905300,24.7599052734375,-0.14242535829544067,0.18637065589427948,0.07634956389665604
1665946133597986300,24.769986328125,-0.11957279592752457,0.2631891071796417,0.046583738178014755
1665946133608068400,24.780068359375,-0.0717349648475647,0.33104297518730164,0.022327400743961334
1665946133618149400,24.7901494140625,-0.018205121159553528,0.3171809911727905,0.011174206621944904
1665946133628230400,24.80023046875,0.037297554314136505,0.2635617256164551,0.029856814071536064
1665946133638311200,24.810311279296876,0.08816926181316376,0.23238129913806915,0.04875165969133377
1665946133648392200,24.82039208984375,0.11394865810871124,0.243620365858078,0.052872102707624435
1665946133658473200,24.83047314453125,0.10852384567260742,0.2089863121509552,0.01000434160232544
1665946133668554200,24.84055419921875,0.07448412477970123,0.20888404548168182,-0.06742387264966965
1665946133678635300,24.85063525390625,0.023775236681103706,0.18944910168647766,-0.12234610319137573
1665946133688716300,24.86071630859375,-0.006570684723556042,0.1687355786561966,-0.15316474437713623
1665946133698798000,24.870798095703126,-0.017559655010700226,0.12156931310892105,-0.16188591718673706
1665946133708879400,24.88087939453125,0.0039517623372375965,0.06291691958904266,-0.13782665133476257
1665946133718960400,24.89096044921875,0.017265141010284424,0.040993593633174896,-0.0914827287197113
1665946133729041400,24.90104150390625,0.008605072274804115,0.05093890428543091,-0.0584145225584507
1665946133739122200,24.9111220703125,0.0010922756046056747,0.09904222190380096,-0.06593228876590729
1665946133749203200,24.921203125,-0.0010198773816227913,0.13950896263122559,-0.1004393994808197
1665946133759284200,24.9312841796875,-0.007184701506048441,0.1929173469543457,-0.14705081284046173
1665946133769365200,24.941365234375,-0.015865808352828026,0.22242037951946259,-0.17956747114658356
1665946133779447300,24.951447265625,-0.028600547462701797,0.22065334022045135,-0.16900548338890076
1665946133789528300,24.9615283203125,-0.03152469918131828,0.2014777809381485,-0.15272106230258942
1665946133799609000,24.971609130859374,-0.019263122230768204,0.1621362566947937,-0.15571732819080353
1665946133809690000,24.981690185546874,-0.003896683920174837,0.12971307337284088,-0.15916958451271057
1665946133819771400,24.991771484375,0.014038294553756714,0.12077099084854126,-0.13922430574893951
1665946133829852400,25.001852294921875,0.014774126932024956,0.10314299911260605,-0.09944680333137512
1665946133839933200,25.01193310546875,0.010142273269593716,0.0730707198381424,-0.03901961073279381
1665946133850015200,25.02201513671875,0.0077491565607488155,0.04574775695800781,0.01440499722957611
1665946133860096300,25.03209619140625,0.0034462357871234417,0.02980746515095234,0.04311807453632355
1665946133870177300,25.04217724609375,-0.0012917942367494106,0.024906715378165245,0.06538210064172745
1665946133880258300,25.05225830078125,-0.006666514556854963,0.039082419127225876,0.0814950093626976
1665946133890339300,25.06233935546875,-0.0031775073148310184,0.05468534678220749,0.07952320575714111
1665946133900420000,25.072420166015625,-0.005313526373356581,0.08491504192352295,0.05720390006899834
1665946133910501000,25.082501220703126,-0.009940503165125847,0.09481187909841537,0.048284973949193954
1665946133920582400,25.09258251953125,-0.012518277391791344,0.08012066781520844,0.05981447920203209
1665946133930664200,25.102664306640627,-0.008071333169937134,0.040045686066150665,0.0847746953368187
1665946133940745500,25.112745361328123,-0.004790028557181358,0.005128603428602219,0.12451747059822083
1665946133950826200,25.122826171875,0.00562373036518693,-0.04541366547346115,0.14093399047851562
1665946133960907300,25.1329072265625,0.02768322266638279,-0.06495900452136993,0.11657888442277908
1665946133970988300,25.14298828125,0.02750425785779953,-0.023979611694812775,0.07280290871858597
1665946133981069300,25.1530693359375,0.015545915812253952,0.03474196419119835,0.03625321015715599
1665946133991150000,25.163150146484377,-0.0009206752292811871,0.08748400956392288,0.011838681064546108
1665946134001232100,25.173232177734373,-0.008977530524134636,0.11132156103849411,0.002562597393989563
1665946134011313200,25.183313232421874,-0.013443917967379093,0.09843611717224121,0.006264923140406609
1665946134021394200,25.193394287109374,-0.011956729926168919,0.06220327690243721,0.035139672458171844
1665946134031475200,25.20347509765625,-0.005174191668629646,0.00996696949005127,0.07161858677864075
1665946134041556500,25.213556396484375,0.0017225684132426977,-0.026479240506887436,0.10667254030704498
1665946134051637200,25.22363720703125,-0.005237336736172438,-0.021532153710722923,0.12586700916290283
1665946134061719300,25.23371923828125,-0.012557451613247395,0.004717335104942322,0.1127890944480896
1665946134071800300,25.24380029296875,-0.026847708970308304,0.04891861975193024,0.08431030809879303
1665946134081881300,25.25388134765625,-0.047053828835487366,0.08215752243995667,0.04641695320606232
1665946134091962400,25.26396240234375,-0.05309201404452324,0.08900531381368637,0.011758305132389069
1665946134102043100,25.274043212890625,-0.04440750926733017,0.07883885502815247,-0.029759053140878677
1665946134112124200,25.284124267578125,-0.02641705982387066,0.07429470121860504,-0.05142918974161148
1665946134122205200,25.294205078125,-0.021307561546564102,0.07913985103368759,-0.05004846304655075
1665946134132287200,25.304287353515626,-0.020841773599386215,0.07614273577928543,-0.028614811599254608
1665946134142368300,25.3143681640625,-0.02240833081305027,0.03605111315846443,-0.006116088479757309
1665946134152449300,25.32444921875,-0.011261403560638428,-0.0009524452034384012,0.006645513698458672
1665946134162530300,25.3345302734375,-0.009321687743067741,-0.00868486799299717,0.0088170375674963
1665946134172611300,25.344611328125,-0.017583345994353294,-0.006768723484128714,0.009375768713653088
1665946134182692400,25.3546923828125,-0.02583862468600273,-0.007530547212809324,0.013918635435402393
1665946134192774400,25.3647744140625,-0.023656699806451797,0.010279342532157898,0.008137445896863937
1665946134202855400,25.37485546875,-0.030845684930682182,0.0230183657258749,0.0029942942783236504
1665946134212936200,25.384936279296873,-0.0341046005487442,0.021367471665143967,-0.0013732900843024254
1665946134223017200,25.395017333984374,-0.02924531139433384,0.012125498615205288,-0.0029307445511221886
1665946134233098200,25.40509814453125,-0.00903458334505558,0.0004752341192215681,-0.01644708588719368
1665946134243179300,25.41517919921875,0.004514696542173624,-0.0034658359363675117,-0.02331370674073696
1665946134253261300,25.42526123046875,0.01037018932402134,-0.006554037798196077,-0.012576641514897346
1665946134263342000,25.435342041015623,0.0018357569351792336,-0.0037618137430399656,0.0004938775673508644
1665946134273423000,25.445423095703124,0.001495937816798687,0.015968747437000275,-0.0008835094049572945
1665946134283504000,25.455504150390624,0.012011269107460976,0.07592078298330307,-0.009224721230566502
1665946134293585400,25.46558544921875,0.01872003823518753,0.09951212257146835,-0.04251423478126526
1665946134303667200,25.475667236328125,0.04920456185936928,0.10955893993377686,-0.07827909290790558
1665946134313748500,25.48574853515625,0.053207289427518845,0.18083471059799194,0.016531839966773987
1665946134323829200,25.495829345703125,-0.03350108861923218,0.06250590085983276,0.1620333194732666
1665946134333910300,25.50591015625,-0.06553491950035095,-0.17007674276828766,0.1950131058692932
1665946134343991300,25.5159912109375,-0.04415113851428032,-0.1608898639678955,0.13600866496562958
1665946134354072300,25.526072265625,-0.04890328273177147,-0.08010314404964447,0.02836582437157631
1665946134364154400,25.536154296875,-0.08738183975219727,-0.05046664923429489,-0.10591050237417221
1665946134374235100,25.546235107421875,-0.11775252968072891,0.029304875060915947,-0.25948622822761536
1665946134384316200,25.556316162109376,-0.12644349038600922,0.1456751674413681,-0.4094618856906891
1665946134394397200,25.566397216796876,-0.13609690964221954,0.23105931282043457,-0.5014090538024902
1665946134404478200,25.576478271484376,-0.12074479460716248,0.2765214443206787,-0.507007360458374
1665946134414560300,25.586560302734377,-0.09564343094825745,0.24205586314201355,-0.4200327396392822
