time,seconds_elapsed,z,y,x
1665946242986054700,0.0130546875,-0.8135528564453125,-0.5941925048828125,-0.0043487548828125
1665946242996135700,0.0231357421875,-0.8624420166015625,-0.5738983154296875,-0.016021728515625
1665946243006217700,0.0332177734375,-0.9006195068359375,-0.527069091796875,-0.0223236083984375
1665946243016299800,0.0432998046875,-0.9210052490234375,-0.5270538330078125,-0.0203399658203125
1665946243026381800,0.0533818359375,-0.92156982421875,-0.5374755859375,-0.022003173828125
1665946243036462800,0.063462890625,-0.9062652587890625,-0.5371856689453125,-0.0154571533203125
1665946243046545000,0.073544921875,-0.9069671630859375,-0.5257415771484375,-0.038116455078125
1665946243056626700,0.083626708984375,-0.88995361328125,-0.5170745849609375,0.0198516845703125
1665946243066708700,0.093708740234375,-0.799163818359375,-0.592071533203125,-0.0064697265625
1665946243076789800,0.103789794921875,-0.7919158935546875,-0.52886962890625,-0.0606536865234375
1665946243086871600,0.11387158203125,-0.7955474853515625,-0.539398193359375,-0.005584716796875
1665946243096953600,0.12395361328125,-0.8342742919921875,-0.5892333984375,-0.0076141357421875
1665946243107035600,0.13403564453125,-0.852783203125,-0.595458984375,-0.016754150390625
1665946243117116700,0.14411669921875,-0.8843536376953125,-0.588470458984375,-0.0305023193359375
1665946243127198700,0.15419873046875,-0.895660400390625,-0.5810699462890625,-0.03143310546875
1665946243137280800,0.16428076171875,-0.8857574462890625,-0.5662994384765625,-0.0291900634765625
1665946243147362800,0.17436279296875,-0.881805419921875,-0.555816650390625,-0.035736083984375
1665946243157444600,0.184444580078125,-0.8748931884765625,-0.5596923828125,-0.0537261962890625
1665946243167526000,0.19452587890625,-0.8211822509765625,-0.55157470703125,-0.068939208984375
1665946243177607700,0.204607666015625,-0.770751953125,-0.5291748046875,-0.0804595947265625
1665946243187689700,0.214689697265625,-0.77630615234375,-0.5343170166015625,-0.072906494140625
1665946243197771800,0.224771728515625,-0.806854248046875,-0.5697174072265625,-0.058685302734375
1665946243207852800,0.234852783203125,-0.8321685791015625,-0.5706787109375,-0.0572662353515625
1665946243217934800,0.244934814453125,-0.8406524658203125,-0.5607452392578125,-0.0763092041015625
1665946243228017000,0.255016845703125,-0.828826904296875,-0.556671142578125,-0.0965118408203125
1665946243238098700,0.2650986328125,-0.8008270263671875,-0.592376708984375,-0.097442626953125
1665946243248179700,0.2751796875,-0.7878265380859375,-0.588409423828125,-0.096282958984375
1665946243258261800,0.28526171875,-0.7630615234375,-0.575469970703125,-0.0919342041015625
1665946243268343800,0.29534375,-0.7898406982421875,-0.5693817138671875,-0.0865936279296875
1665946243278425600,0.305425537109375,-0.857940673828125,-0.5731201171875,-0.076324462890625
1665946243288506600,0.315506591796875,-0.9105377197265625,-0.595428466796875,-0.058258056640625
1665946243298588700,0.325588623046875,-0.8491363525390625,-0.580078125,-0.084747314453125
1665946243308670700,0.335670654296875,-0.7562713623046875,-0.55963134765625,-0.0986785888671875
1665946243318752800,0.345752685546875,-0.762542724609375,-0.5308990478515625,-0.12677001953125
1665946243328834800,0.355834716796875,-0.834869384765625,-0.5399169921875,-0.1040802001953125
1665946243338915800,0.365915771484375,-0.8768463134765625,-0.572845458984375,-0.0884857177734375
1665946243348998000,0.375997802734375,-0.8449554443359375,-0.5887603759765625,-0.0811767578125
1665946243359080000,0.386079833984375,-0.7856597900390625,-0.5660552978515625,-0.078948974609375
1665946243369161700,0.39616162109375,-0.7682342529296875,-0.5276947021484375,-0.101776123046875
1665946243379242800,0.40624267578125,-0.769439697265625,-0.5020599365234375,-0.130889892578125
1665946243389324500,0.416324462890625,-0.778167724609375,-0.4717864990234375,-0.117401123046875
1665946243399406600,0.426406494140625,-0.7848358154296875,-0.4400482177734375,-0.1019439697265625
1665946243409488600,0.436488525390625,-0.8174896240234375,-0.4037933349609375,-0.0796356201171875
1665946243419569700,0.446569580078125,-0.8318939208984375,-0.3748779296875,-0.0225982666015625
1665946243429651700,0.456651611328125,-0.8482208251953125,-0.4525299072265625,-0.0155792236328125
1665946243439733800,0.466733642578125,-0.8587646484375,-0.5369720458984375,-0.0720062255859375
1665946243449815800,0.47681591796875,-0.8473052978515625,-0.5130767822265625,-0.139007568359375
1665946243459896800,0.486896728515625,-0.81048583984375,-0.47589111328125,-0.1967010498046875
1665946243469979000,0.496978759765625,-0.769287109375,-0.4355316162109375,-0.204193115234375
1665946243480061000,0.50706103515625,-0.730560302734375,-0.40283203125,-0.1587677001953125
1665946243490142700,0.517142822265625,-0.7050628662109375,-0.388275146484375,-0.0866546630859375
1665946243500224800,0.527224853515625,-0.6929473876953125,-0.407318115234375,-0.04522705078125
1665946243510305500,0.537305419921875,-0.8726959228515625,-0.4534149169921875,-0.139862060546875
1665946243520387600,0.5473876953125,-1.1888580322265625,-0.4169158935546875,-0.2172088623046875
1665946243530469600,0.5574697265625,-1.2068023681640625,-0.3373870849609375,-0.1707763671875
1665946243540551700,0.5675517578125,-1.2025909423828125,-0.3319244384765625,-0.1733856201171875
1665946243550632700,0.5776328125,-1.1002960205078125,-0.3704071044921875,-0.1646270751953125
1665946243560714800,0.58771484375,-0.9996185302734375,-0.40985107421875,-0.1702880859375
1665946243570796800,0.597796875,-0.8963775634765625,-0.44970703125,-0.1210174560546875
1665946243580878800,0.60787890625,-0.827239990234375,-0.5095062255859375,-0.074005126953125
1665946243590959900,0.6179599609375,-0.803955078125,-0.575836181640625,-0.0522918701171875
1665946243601042000,0.6280419921875,-0.8160552978515625,-0.576324462890625,-0.0248870849609375
1665946243611123700,0.638123779296875,-0.6978607177734375,-0.70269775390625,0.1992340087890625
1665946243621205800,0.648205810546875,-0.514556884765625,-1.09613037109375,0.551513671875
1665946243631286500,0.65828662109375,-0.6129913330078125,-1.0424041748046875,0.2105560302734375
1665946243641368600,0.66836865234375,-0.6731414794921875,-0.6965179443359375,-0.1608428955078125
1665946243651450600,0.67845068359375,-0.760345458984375,-0.5599822998046875,-0.151275634765625
1665946243661532700,0.68853271484375,-0.8285675048828125,-0.59783935546875,-0.1684417724609375
1665946243671614700,0.69861474609375,-0.8543701171875,-0.6478729248046875,-0.193634033203125
1665946243681695700,0.70869580078125,-0.8777313232421875,-0.6380615234375,-0.1801605224609375
1665946243691777800,0.71877783203125,-0.9102020263671875,-0.59600830078125,-0.140625
1665946243701859800,0.72885986328125,-0.9303741455078125,-0.539276123046875,-0.1064300537109375
1665946243711941600,0.738941650390625,-0.8906402587890625,-0.5054931640625,-0.096221923828125
1665946243722022700,0.749022705078125,-0.830780029296875,-0.49798583984375,-0.076629638671875
1665946243732104700,0.759104736328125,-0.787139892578125,-0.506683349609375,-0.0958709716796875
1665946243742186800,0.769186767578125,-0.762176513671875,-0.5278778076171875,-0.121429443359375
1665946243752268800,0.779268798828125,-0.7412109375,-0.551513671875,-0.15460205078125
1665946243762349800,0.789349853515625,-0.722320556640625,-0.573883056640625,-0.1808624267578125
1665946243772432000,0.799431884765625,-0.7480010986328125,-0.585174560546875,-0.1894073486328125
1665946243782514000,0.809513916015625,-0.7814788818359375,-0.57464599609375,-0.182220458984375
1665946243792595700,0.819595703125,-0.815826416015625,-0.558990478515625,-0.1776123046875
1665946243802677500,0.829677490234375,-0.841522216796875,-0.5545654296875,-0.1772613525390625
1665946243812758500,0.839758544921875,-0.8624420166015625,-0.5549468994140625,-0.1832733154296875
1665946243822840600,0.849840576171875,-0.876953125,-0.5585479736328125,-0.185211181640625
1665946243832922400,0.85992236328125,-0.8699188232421875,-0.559661865234375,-0.1872406005859375
1665946243843004400,0.87000439453125,-0.86431884765625,-0.558837890625,-0.1883544921875
1665946243853085400,0.88008544921875,-0.85052490234375,-0.5665740966796875,-0.178466796875
1665946243863167500,0.89016748046875,-0.8369140625,-0.5777435302734375,-0.1767425537109375
1665946243873249500,0.90024951171875,-0.8046875,-0.577850341796875,-0.1884307861328125
1665946243883331600,0.91033154296875,-0.7521514892578125,-0.5703582763671875,-0.192169189453125
1665946243893412600,0.92041259765625,-0.7282257080078125,-0.583526611328125,-0.208770751953125
1665946243903494700,0.93049462890625,-0.7267303466796875,-0.5959625244140625,-0.21002197265625
1665946243913576700,0.94057666015625,-0.740447998046875,-0.596832275390625,-0.19134521484375
1665946243923658500,0.950658447265625,-0.77911376953125,-0.60003662109375,-0.1679229736328125
1665946243933740300,0.960740234375,-0.8267974853515625,-0.6060028076171875,-0.1505126953125
1665946243943821300,0.9708212890625,-0.853424072265625,-0.606475830078125,-0.1468658447265625
1665946243953903400,0.9809033203125,-0.85137939453125,-0.6015167236328125,-0.158294677734375
1665946243963985400,0.9909853515625,-0.840576171875,-0.6038818359375,-0.1690521240234375
1665946243974067500,1.0010673828125,-0.8321075439453125,-0.606658935546875,-0.1758270263671875
1665946243984148500,1.0111484375,-0.8199920654296875,-0.6252593994140625,-0.1616973876953125
1665946243994230500,1.02123046875,-0.8270721435546875,-0.6225433349609375,-0.14642333984375
1665946244004312600,1.0313125,-0.827667236328125,-0.620635986328125,-0.133026123046875
1665946244014394600,1.04139453125,-0.8119659423828125,-0.6361846923828125,-0.1220703125
1665946244024475600,1.0514755859375,-0.7782135009765625,-0.660125732421875,-0.102325439453125
1665946244034557700,1.0615576171875,-0.7907562255859375,-0.6640625,-0.11175537109375
1665946244044639500,1.071639404296875,-0.823577880859375,-0.652313232421875,-0.1218414306640625
1665946244054721500,1.081721435546875,-0.8277587890625,-0.6422882080078125,-0.123016357421875
1665946244064803600,1.091803466796875,-0.831024169921875,-0.6265869140625,-0.1217041015625
1665946244074884400,1.10188427734375,-0.843719482421875,-0.6243896484375,-0.11993408203125
1665946244084966400,1.11196630859375,-0.8469390869140625,-0.62347412109375,-0.131927490234375
1665946244095048400,1.12204833984375,-0.844085693359375,-0.605377197265625,-0.12890625
1665946244105130500,1.132130615234375,-0.8382110595703125,-0.5809326171875,-0.1195220947265625
1665946244115211500,1.14221142578125,-0.8350830078125,-0.588470458984375,-0.1089630126953125
1665946244125293600,1.15229345703125,-0.83642578125,-0.58856201171875,-0.0912322998046875
1665946244135375600,1.162375732421875,-0.85418701171875,-0.57000732421875,-0.0694580078125
1665946244145457400,1.17245751953125,-0.8603363037109375,-0.55218505859375,-0.054351806640625
1665946244155538400,1.182538330078125,-0.8497772216796875,-0.544219970703125,-0.0460052490234375
1665946244165620500,1.192620361328125,-0.83819580078125,-0.535430908203125,-0.04498291015625
1665946244175702500,1.20270263671875,-0.82806396484375,-0.5191192626953125,-0.042327880859375
1665946244185784600,1.21278466796875,-0.82659912109375,-0.5123291015625,-0.0481414794921875
1665946244195866600,1.22286669921875,-0.8369140625,-0.5106353759765625,-0.058624267578125
1665946244205947400,1.232947509765625,-0.8408966064453125,-0.5102081298828125,-0.0458526611328125
1665946244216029400,1.243029541015625,-0.8379974365234375,-0.489501953125,-0.029052734375
1665946244226111500,1.253111572265625,-0.824554443359375,-0.48260498046875,-0.025390625
1665946244236193500,1.263193603515625,-0.8112335205078125,-0.48468017578125,-0.0291748046875
1665946244246274600,1.273274658203125,-0.8036956787109375,-0.4837646484375,-0.0161590576171875
1665946244256356400,1.2833564453125,-0.7879638671875,-0.47491455078125,0.001739501953125
1665946244266438400,1.2934384765625,-0.767578125,-0.4725341796875,0.020782470703125
1665946244276520400,1.3035205078125,-0.7649688720703125,-0.4747772216796875,0.032196044921875
1665946244286601500,1.3136015625,-0.7719879150390625,-0.4723968505859375,0.0298614501953125
1665946244296683500,1.32368359375,-0.783843994140625,-0.4919281005859375,0.0132904052734375
1665946244306765600,1.333765625,-0.8000640869140625,-0.522613525390625,-0.0079345703125
1665946244316847600,1.34384765625,-0.8341522216796875,-0.5394287109375,-0.0129852294921875
1665946244326929700,1.3539296875,-0.8771514892578125,-0.5428314208984375,-0.0041656494140625
1665946244337010400,1.364010498046875,-0.917327880859375,-0.546234130859375,0.0132293701171875
1665946244347092500,1.374092529296875,-0.968902587890625,-0.525482177734375,0.02093505859375
1665946244357174300,1.38417431640625,-0.9889373779296875,-0.5179443359375,0.0286865234375
1665946244367256300,1.39425634765625,-0.983673095703125,-0.52874755859375,0.03326416015625
1665946244377337300,1.40433740234375,-0.971923828125,-0.5216064453125,0.019439697265625
1665946244387419400,1.41441943359375,-0.9556427001953125,-0.52618408203125,0.0076751708984375
1665946244397501400,1.42450146484375,-0.92376708984375,-0.556121826171875,0.0117950439453125
1665946244407583500,1.43458349609375,-0.9173431396484375,-0.5513153076171875,0.015777587890625
1665946244417664500,1.44466455078125,-0.9166259765625,-0.555267333984375,-0.0043487548828125
1665946244427746600,1.45474658203125,-0.9067230224609375,-0.55572509765625,-0.0167694091796875
1665946244437828600,1.46482861328125,-0.89459228515625,-0.572479248046875,-0.010894775390625
1665946244447910700,1.47491064453125,-0.8746337890625,-0.581695556640625,-0.021331787109375
1665946244457992400,1.484992431640625,-0.8768463134765625,-0.572418212890625,-0.041534423828125
1665946244468073700,1.49507373046875,-0.82940673828125,-0.58697509765625,-0.0398101806640625
1665946244478155300,1.5051552734375,-0.805267333984375,-0.6162109375,-0.052032470703125
1665946244488237300,1.5152373046875,-0.817626953125,-0.610107421875,-0.0673828125
1665946244498319400,1.5253193359375,-0.8384552001953125,-0.591278076171875,-0.08551025390625
1665946244508400400,1.535400390625,-0.8549652099609375,-0.5809478759765625,-0.0915985107421875
1665946244518482400,1.545482421875,-0.8600006103515625,-0.5661163330078125,-0.091827392578125
1665946244528564500,1.555564453125,-0.860198974609375,-0.5508270263671875,-0.0932464599609375
1665946244538646500,1.565646484375,-0.87713623046875,-0.5519866943359375,-0.0897369384765625
1665946244548727600,1.5757275390625,-0.92620849609375,-0.5604705810546875,-0.066253662109375
1665946244558809600,1.5858095703125,-0.9585723876953125,-0.5608673095703125,-0.0206146240234375
1665946244568891600,1.5958916015625,-0.97906494140625,-0.568695068359375,0.0037994384765625
1665946244578973400,1.605973388671875,-0.986358642578125,-0.59918212890625,0.0226593017578125
1665946244589055500,1.616055419921875,-0.9702911376953125,-0.608428955078125,0.0020904541015625
1665946244599136500,1.626136474609375,-0.935821533203125,-0.6013641357421875,-0.0300140380859375
1665946244609218600,1.636218505859375,-0.9156494140625,-0.5924224853515625,-0.05999755859375
1665946244619300600,1.646300537109375,-0.936309814453125,-0.5736236572265625,-0.1381988525390625
1665946244629382400,1.65638232421875,-0.9766845703125,-0.6116180419921875,-0.275970458984375
1665946244639463400,1.66646337890625,-0.94000244140625,-0.413909912109375,-0.407196044921875
1665946244649545500,1.67654541015625,-0.8779754638671875,-0.1357879638671875,-0.5003814697265625
1665946244659627500,1.68662744140625,-0.7975311279296875,-0.0789794921875,-0.4831695556640625
1665946244669709600,1.69670947265625,-0.7197265625,-0.179534912109375,-0.390869140625
1665946244679791400,1.706791259765625,-0.7308502197265625,-0.2535247802734375,-0.2916717529296875
1665946244689872400,1.716872314453125,-0.8606109619140625,-0.211883544921875,-0.2515411376953125
1665946244699954400,1.726954345703125,-0.8669586181640625,-0.214447021484375,-0.32110595703125
1665946244710036500,1.737036376953125,-0.8302001953125,-0.2387237548828125,-0.4204864501953125
1665946244720118500,1.747118408203125,-0.8461151123046875,-0.1639556884765625,-0.483734130859375
1665946244730199600,1.757199462890625,-0.7464599609375,-0.106475830078125,-0.543121337890625
1665946244740281600,1.767281494140625,-0.5066986083984375,-0.1342926025390625,-0.6199951171875
1665946244750363600,1.77736376953125,-0.300537109375,-0.2179107666015625,-0.6356201171875
1665946244760445700,1.78744580078125,-0.1821746826171875,-0.27166748046875,-0.602752685546875
1665946244770527500,1.797527587890625,-0.083038330078125,-0.1989593505859375,-0.45880126953125
1665946244780608500,1.8076083984375,0.780792236328125,-0.200714111328125,-0.156707763671875
1665946244790690300,1.817690185546875,1.554718017578125,-0.710479736328125,0.0431976318359375
1665946244800772400,1.8277724609375,-0.1168060302734375,-0.809906005859375,-0.38720703125
1665946244810854400,1.8378544921875,-0.05169677734375,-0.9013519287109375,-0.4156341552734375
1665946244820935200,1.84793505859375,-0.1901702880859375,-0.7526702880859375,-0.55450439453125
1665946244831017200,1.858017333984375,-0.1384124755859375,-0.6507568359375,-0.4937744140625
1665946244841099300,1.868099365234375,-0.2261505126953125,-0.626861572265625,-0.35479736328125
1665946244851181300,1.878181396484375,-0.28021240234375,-0.434326171875,-0.185577392578125
1665946244861262300,1.888262451171875,-0.420867919921875,-0.5172119140625,-1.005218505859375
1665946244871344400,1.898344482421875,-0.879150390625,-0.6286468505859375,-0.9789886474609375
1665946244881426400,1.908426513671875,-0.1835479736328125,-0.69219970703125,-0.3535919189453125
1665946244891508200,1.91850830078125,-0.1075592041015625,-0.6347808837890625,-0.44708251953125
1665946244901589500,1.928589599609375,-0.267364501953125,-0.6334381103515625,-0.39642333984375
1665946244911671300,1.93867138671875,-0.5289306640625,-0.5308837890625,-0.554412841796875
1665946244921753300,1.94875341796875,-0.629608154296875,-0.59844970703125,-0.59368896484375
1665946244931835400,1.95883544921875,-0.417327880859375,-0.686248779296875,-0.5553131103515625
1665946244941917400,1.96891748046875,-0.2579803466796875,-0.79351806640625,-0.2588043212890625
1665946244951998500,1.97899853515625,-0.330474853515625,-0.6808319091796875,-0.1734771728515625
1665946244962080500,1.98908056640625,-0.331268310546875,-0.493438720703125,-0.4467010498046875
1665946244972162300,1.999162353515625,-0.2518157958984375,-0.3835601806640625,-0.672515869140625
1665946244982244400,2.009244384765625,-0.2945098876953125,-0.284149169921875,-0.5052947998046875
1665946244992325400,2.019325439453125,-0.129791259765625,-0.183837890625,0.0054779052734375
1665946245002407400,2.029407470703125,0.2825469970703125,-0.1371917724609375,0.4387359619140625
1665946245012489200,2.0394892578125,0.895233154296875,-0.259429931640625,0.4564208984375
1665946245022571300,2.0495712890625,1.69989013671875,-0.4449920654296875,0.0355682373046875
1665946245032653300,2.0596533203125,2.3878021240234375,-0.48114013671875,-0.2535552978515625
1665946245042734300,2.069734375,2.683624267578125,-0.60150146484375,-0.05572509765625
1665946245052816400,2.07981640625,2.61907958984375,-0.8321533203125,0.1958160400390625
1665946245062898400,2.0898984375,2.2414398193359375,-0.940460205078125,0.24334716796875
1665946245072980500,2.09998046875,1.6511688232421875,-0.902374267578125,0.1035308837890625
1665946245083061500,2.1100615234375,0.96209716796875,-0.7903594970703125,-0.044464111328125
1665946245093143600,2.1201435546875,0.3759002685546875,-0.6530609130859375,-0.1597137451171875
1665946245103225300,2.130225341796875,-0.0070953369140625,-0.607330322265625,-0.2578277587890625
1665946245113307400,2.140307373046875,-0.091766357421875,-0.830657958984375,-0.259521484375
1665946245123389400,2.150389404296875,0.0958709716796875,-0.9799652099609375,-0.3234405517578125
1665946245133470200,2.16047021484375,0.4787750244140625,-1.098388671875,-0.302520751953125
1665946245143552300,2.17055224609375,0.799072265625,-1.293060302734375,-0.1903228759765625
1665946245153634300,2.18063427734375,0.876007080078125,-1.4972686767578125,-0.11126708984375
1665946245163716400,2.19071630859375,0.69744873046875,-1.6571502685546875,-0.1460723876953125
1665946245173797400,2.20079736328125,0.490264892578125,-2.181060791015625,-0.0575103759765625
1665946245183879400,2.21087939453125,0.347747802734375,-2.3558807373046875,0.1708831787109375
1665946245193961500,2.22096142578125,0.2751617431640625,-1.75506591796875,0.2453460693359375
1665946245204043300,2.231043212890625,-0.018218994140625,-1.2761077880859375,0.048095703125
1665946245214124500,2.24112451171875,-0.4277191162109375,-0.93804931640625,-0.111328125
1665946245224206300,2.251206298828125,-0.7686004638671875,-0.703765869140625,-0.0873565673828125
1665946245234288400,2.261288330078125,-0.9141845703125,-0.6360931396484375,-0.0035247802734375
1665946245244370400,2.271370361328125,-1.29736328125,-0.693389892578125,-0.313018798828125
1665946245254451200,2.281451171875,-1.9441680908203125,-0.608673095703125,-0.97662353515625
1665946245264533200,2.291533203125,-1.6873931884765625,-0.8587646484375,-0.523956298828125
1665946245274615300,2.301615234375,-1.0394439697265625,-1.2654876708984375,0.0137939453125
1665946245284697300,2.311697265625,-0.428558349609375,-1.28729248046875,-0.0412445068359375
1665946245294779400,2.321779296875,-0.097503662109375,-1.3172760009765625,-0.177276611328125
1665946245304860400,2.3318603515625,0.0943756103515625,-1.1327667236328125,-0.1981353759765625
1665946245314942500,2.3419423828125,0.1072845458984375,-0.9449615478515625,-0.2437591552734375
1665946245325024300,2.352024169921875,0.0106964111328125,-0.82958984375,-0.3194732666015625
1665946245335106300,2.362106201171875,-0.0695037841796875,-0.7364044189453125,-0.3974456787109375
1665946245345187300,2.372187255859375,-0.032135009765625,-0.8080902099609375,-0.451019287109375
1665946245355269400,2.382269287109375,-0.030670166015625,-0.876190185546875,-0.4557342529296875
1665946245365351400,2.392351318359375,-0.0369873046875,-0.9475860595703125,-0.4631805419921875
1665946245375433500,2.40243359375,-0.09075927734375,-0.990997314453125,-0.560821533203125
1665946245385515500,2.412515625,-0.1869659423828125,-0.9822998046875,-0.6322174072265625
1665946245395596300,2.42259619140625,-0.1989593505859375,-1.0247802734375,-0.6064910888671875
1665946245405678300,2.43267822265625,-0.22454833984375,-1.074798583984375,-0.5512847900390625
1665946245415760400,2.442760498046875,-0.1729736328125,-1.1082916259765625,-0.5527801513671875
1665946245425842200,2.45284228515625,-0.0626068115234375,-1.1584625244140625,-0.572113037109375
1665946245435923500,2.46292333984375,0.0730438232421875,-1.2185821533203125,-0.621551513671875
1665946245446005200,2.473005126953125,0.164031982421875,-1.248626708984375,-0.669158935546875
1665946245456087300,2.48308740234375,0.18017578125,-1.1992034912109375,-0.710845947265625
1665946245466169300,2.49316943359375,0.1354217529296875,-1.0888671875,-0.7546539306640625
1665946245476251400,2.50325146484375,0.0868072509765625,-0.9622650146484375,-0.7738189697265625
1665946245486332400,2.51333251953125,0.0855712890625,-0.8620452880859375,-0.7581787109375
1665946245496414500,2.52341455078125,0.151397705078125,-0.8228759765625,-0.735626220703125
1665946245506496500,2.53349658203125,0.233184814453125,-0.8148193359375,-0.739715576171875
1665946245516578600,2.54357861328125,0.2911834716796875,-0.84967041015625,-0.733489990234375
1665946245526659300,2.553659423828125,0.3066558837890625,-0.8800201416015625,-0.669952392578125
1665946245536741400,2.563741455078125,0.27508544921875,-0.8495941162109375,-0.587371826171875
1665946245546823200,2.5738232421875,0.2163848876953125,-0.7864532470703125,-0.5236053466796875
1665946245556905200,2.5839052734375,0.14593505859375,-0.7282562255859375,-0.4638671875
1665946245566987300,2.5939873046875,0.0607147216796875,-0.6649017333984375,-0.3796539306640625
1665946245577068300,2.604068359375,-0.537322998046875,0.628631591796875,-0.113922119140625
1665946245587150300,2.614150390625,-0.2465972900390625,1.73687744140625,0.2176361083984375
1665946245597232400,2.624232421875,0.2939300537109375,-0.005126953125,-0.0980377197265625
1665946245607314400,2.634314453125,0.520843505859375,-1.474822998046875,-0.0246124267578125
1665946245617395500,2.6443955078125,0.6831512451171875,-1.7488861083984375,0.3511810302734375
1665946245627477500,2.6544775390625,0.6574554443359375,-1.2220001220703125,0.6160125732421875
1665946245637559300,2.664559326171875,0.676055908203125,-0.954498291015625,0.7176055908203125
1665946245647641300,2.674641357421875,0.3572998046875,-0.942138671875,0.47137451171875
1665946245657723400,2.684723388671875,0.203155517578125,-1.00872802734375,0.2743682861328125
1665946245667804400,2.694804443359375,0.215362548828125,-1.293121337890625,0.3643646240234375
1665946245677886200,2.70488623046875,0.13006591796875,-1.3650054931640625,0.3397369384765625
1665946245687968300,2.71496826171875,-0.021636962890625,-1.3050689697265625,0.1912078857421875
1665946245698050300,2.72505029296875,-0.148101806640625,-1.3586273193359375,-0.0091400146484375
1665946245708131300,2.73513134765625,-0.1515045166015625,-1.4935150146484375,-0.08160400390625
1665946245718213400,2.74521337890625,-0.0904083251953125,-1.5529632568359375,-0.1014556884765625
1665946245728295400,2.75529541015625,-0.024322509765625,-1.5290985107421875,-0.1091156005859375
1665946245738377200,2.765377197265625,-0.5151214599609375,-1.3927459716796875,-0.100067138671875
1665946245748459300,2.775459228515625,-0.7219085693359375,-1.2646331787109375,0.0630645751953125
1665946245758540300,2.785540283203125,-0.506134033203125,-1.3125457763671875,0.0980682373046875
1665946245768622300,2.795622314453125,-0.3444976806640625,-1.28192138671875,-0.059967041015625
1665946245778704400,2.805704345703125,-0.159912109375,-1.2931976318359375,-0.156585693359375
1665946245788786400,2.815786376953125,-0.0544281005859375,-1.349578857421875,-0.190460205078125
1665946245798867500,2.825867431640625,-0.0261993408203125,-1.3095855712890625,-0.1461334228515625
1665946245808948700,2.83594873046875,0.1146392822265625,-1.328460693359375,-0.1725311279296875
1665946245819030800,2.84603076171875,0.0015411376953125,-1.204681396484375,-0.330352783203125
1665946245829112800,2.85611279296875,-0.025482177734375,-1.0901336669921875,-0.2968292236328125
1665946245839195000,2.86619482421875,0.39813232421875,-1.370452880859375,-0.278778076171875
1665946245849276000,2.87627587890625,-0.103179931640625,-1.280517578125,-0.695343017578125
1665946245859358000,2.88635791015625,-0.4814453125,-0.55072021484375,-0.8162994384765625
1665946245869439700,2.896439697265625,-0.33544921875,-0.3881378173828125,-0.6035308837890625
1665946245879521800,2.906521728515625,0.1271820068359375,-0.39215087890625,-0.486114501953125
1665946245889602800,2.916602783203125,0.371429443359375,-0.4767303466796875,-0.5594329833984375
1665946245899684900,2.926684814453125,0.1187744140625,-0.4303436279296875,-0.6859588623046875
1665946245909767000,2.936766845703125,-0.1243743896484375,-0.3170623779296875,-0.5571136474609375
1665946245919849000,2.946848876953125,-0.329071044921875,-0.095672607421875,-0.3928985595703125
1665946245929931000,2.956930908203125,-0.439361572265625,-0.0340728759765625,-0.29962158203125
1665946245940012000,2.967011962890625,-0.514739990234375,-0.0888214111328125,-0.3217926025390625
1665946245950093800,2.97709375,-0.511810302734375,-0.3318634033203125,-0.311126708984375
1665946245960175900,2.98717578125,-0.5022125244140625,-0.6093902587890625,-0.2666015625
1665946245970257700,2.997257568359375,-0.4177398681640625,-0.6822662353515625,-0.23956298828125
1665946245980338700,3.007338623046875,-0.457977294921875,-0.5323944091796875,-0.249847412109375
1665946245990420700,3.017420654296875,-0.4125823974609375,-0.442047119140625,-0.261260986328125
1665946246000502800,3.027502685546875,-0.1195831298828125,-0.42236328125,-0.2211456298828125
1665946246010584800,3.037584716796875,0.1780548095703125,-0.466064453125,-0.2236480712890625
1665946246020667000,3.0476669921875,0.3477325439453125,-0.552215576171875,-0.25537109375
1665946246030748000,3.057747802734375,0.3327178955078125,-0.75213623046875,-0.279754638671875
1665946246040830000,3.067829833984375,0.4540863037109375,-0.915069580078125,-0.359954833984375
1665946246050912000,3.077912109375,0.1998748779296875,-1.3199615478515625,-0.3534393310546875
1665946246060993800,3.087993896484375,-0.142333984375,-1.4681549072265625,-0.144927978515625
1665946246071075800,3.098075927734375,-0.39227294921875,-1.5102996826171875,0.1059112548828125
1665946246081156900,3.108156982421875,-0.381561279296875,-1.4885101318359375,0.2151336669921875
1665946246091239000,3.118239013671875,-0.319183349609375,-1.4618377685546875,0.240631103515625
1665946246101321000,3.128321044921875,-0.124420166015625,-1.4715728759765625,0.3748779296875
1665946246111402800,3.13840283203125,0.0142974853515625,-1.7051849365234375,0.4946746826171875
1665946246121483800,3.14848388671875,-0.2122039794921875,-1.4512176513671875,0.2549896240234375
1665946246131565800,3.15856591796875,-0.24822998046875,-0.8397979736328125,-0.279571533203125
1665946246141648000,3.16864794921875,0.130584716796875,-0.5670623779296875,-1.7458343505859375
1665946246151730000,3.17872998046875,0.5632476806640625,-1.443511962890625,-0.3354949951171875
1665946246161811700,3.188811767578125,0.5466156005859375,-0.957305908203125,-0.0067596435546875
1665946246171893000,3.19889306640625,0.6590576171875,-0.711151123046875,-0.6985015869140625
1665946246181974800,3.208974853515625,0.7248992919921875,-0.8400115966796875,-0.50347900390625
1665946246192056800,3.219056884765625,0.6148834228515625,-0.4989471435546875,-0.57177734375
1665946246202139000,3.229138916015625,0.51611328125,-0.3654022216796875,-0.515899658203125
1665946246212220000,3.239219970703125,0.5576019287109375,0.47235107421875,-0.26239013671875
1665946246222302000,3.249302001953125,1.54412841796875,0.7604827880859375,0.0735931396484375
1665946246232384000,3.259384033203125,1.8778533935546875,-1.452728271484375,-0.382171630859375
1665946246242466000,3.269466064453125,0.967559814453125,-2.4724273681640625,-1.3160247802734375
1665946246252548000,3.279548095703125,0.0516510009765625,-2.249603271484375,-1.1513214111328125
1665946246262628900,3.28962890625,-1.03045654296875,-1.480926513671875,-0.7401580810546875
1665946246272711000,3.2997109375,-1.5232086181640625,-0.768096923828125,-0.5562896728515625
1665946246282792700,3.309792724609375,-1.2739715576171875,-0.6029052734375,-0.3071136474609375
1665946246292874800,3.319874755859375,-0.526153564453125,-0.6902923583984375,-0.2764434814453125
1665946246302956800,3.329956787109375,0.1840667724609375,-0.6893768310546875,-0.3751373291015625
1665946246313037800,3.340037841796875,0.691497802734375,-0.6373291015625,-0.4347076416015625
1665946246323119900,3.350119873046875,0.869873046875,-0.57958984375,-0.5197906494140625
1665946246333202000,3.360201904296875,0.7164154052734375,-0.5852508544921875,-0.6102294921875
1665946246343284000,3.370283935546875,0.369476318359375,-0.543975830078125,-0.7242584228515625
1665946246353365000,3.380364990234375,0.0289764404296875,-0.536468505859375,-0.8046722412109375
1665946246363447000,3.390447021484375,-0.1772308349609375,-0.731964111328125,-0.8646087646484375
1665946246373528800,3.40052880859375,-0.263092041015625,-0.8730621337890625,-0.9740447998046875
1665946246383611000,3.41061083984375,-0.22723388671875,-0.982208251953125,-1.052215576171875
1665946246393693000,3.42069287109375,-0.2161407470703125,-1.1017913818359375,-0.99822998046875
1665946246403773700,3.430773681640625,-0.285491943359375,-1.23779296875,-1.01397705078125
1665946246413855700,3.440855712890625,-0.212921142578125,-1.455535888671875,-0.969146728515625
1665946246423937800,3.450937744140625,0.0876312255859375,-1.4640960693359375,-0.8587188720703125
1665946246434019800,3.461019775390625,0.6405029296875,-2.2084808349609375,-0.6572418212890625
1665946246444102000,3.471101806640625,0.5363922119140625,-1.712158203125,-0.09356689453125
1665946246454183000,3.481182861328125,0.153533935546875,0.274566650390625,0.2323760986328125
1665946246464265000,3.491264892578125,0.792388916015625,2.1296234130859375,0.6095123291015625
1665946246474346800,3.5013466796875,1.345245361328125,0.419647216796875,1.1464691162109375
1665946246484428800,3.5114287109375,1.2837371826171875,-1.4631500244140625,0.9495391845703125
1665946246494510800,3.5215107421875,0.1559295654296875,-1.404144287109375,0.7193603515625
1665946246504592000,3.531591796875,-0.5442657470703125,-0.9787750244140625,0.5087738037109375
1665946246514674000,3.541673828125,-0.1013946533203125,-0.9756622314453125,0.378570556640625
1665946246524756000,3.551755859375,0.393707275390625,-0.753997802734375,0.3419952392578125
1665946246534838000,3.561838134765625,0.4676055908203125,-0.1193695068359375,0.081146240234375
1665946246544920000,3.571920166015625,0.6281585693359375,0.061981201171875,-0.4061279296875
1665946246555000800,3.582000732421875,0.5837554931640625,-0.022491455078125,-0.6225433349609375
1665946246565083000,3.592082763671875,0.426910400390625,0.002471923828125,-0.600738525390625
1665946246575164700,3.60216455078125,0.4495849609375,-0.127288818359375,-0.6546783447265625
1665946246585246700,3.612246826171875,0.64080810546875,-0.5034332275390625,-0.6670989990234375
1665946246595328800,3.622328857421875,0.3753662109375,-0.73626708984375,-0.6089324951171875
1665946246605409800,3.632409912109375,0.08953857421875,-1.120391845703125,-0.8589630126953125
1665946246615491800,3.642491943359375,0.1239776611328125,-1.39788818359375,-0.8452606201171875
1665946246625574000,3.652573974609375,0.10150146484375,-1.4647369384765625,-0.6299591064453125
1665946246635656000,3.662656005859375,0.081756591796875,-1.48345947265625,-0.5247344970703125
1665946246645738000,3.672738037109375,0.21307373046875,-1.5194091796875,-0.42083740234375
1665946246655819000,3.682819091796875,0.3110809326171875,-1.3046875,-0.1589508056640625
1665946246665901000,3.692901123046875,0.240753173828125,-1.032470703125,-0.028106689453125
1665946246675982800,3.70298291015625,0.223876953125,-1.135406494140625,0.052703857421875
1665946246686065000,3.71306494140625,0.2706298828125,-1.5041351318359375,-0.20623779296875
1665946246696147000,3.72314697265625,0.4103851318359375,-1.564605712890625,-0.2252960205078125
1665946246706227700,3.733227783203125,0.40118408203125,-1.2813720703125,-0.3048858642578125
1665946246716309800,3.743309814453125,0.4446563720703125,-1.28790283203125,-0.6041107177734375
1665946246726391800,3.753391845703125,0.4251556396484375,-1.3057861328125,-0.733795166015625
1665946246736473900,3.763473876953125,0.4830474853515625,-1.1225433349609375,-0.683868408203125
1665946246746556000,3.773555908203125,0.6271209716796875,-1.118865966796875,-0.493194580078125
1665946246756637000,3.783636962890625,0.3021392822265625,-0.973114013671875,0.0848541259765625
1665946246766719000,3.793718994140625,0.2465667724609375,-0.737884521484375,0.426727294921875
1665946246776800800,3.80380078125,0.31048583984375,-0.91351318359375,-0.0482025146484375
1665946246786882800,3.8138828125,0.4697723388671875,-0.79351806640625,-0.3115386962890625
1665946246796964900,3.82396484375,0.426666259765625,-0.684234619140625,-0.388671875
1665946246807046000,3.8340458984375,0.32452392578125,-0.693267822265625,-0.3836669921875
1665946246817128200,3.844128173828125,0.21490478515625,-0.667999267578125,-0.2742919921875
1665946246827210200,3.854210205078125,-0.0579833984375,-0.6674652099609375,-0.2582244873046875
1665946246837292300,3.864292236328125,-0.2577056884765625,-0.7378692626953125,-0.337646484375
1665946246847374000,3.8743740234375,-0.3862457275390625,-0.75750732421875,-0.3383026123046875
1665946246857455400,3.884455322265625,-0.3564453125,-0.7108917236328125,-0.31658935546875
1665946246867537200,3.894537109375,-0.2593536376953125,-0.6822357177734375,-0.2986907958984375
1665946246877619200,3.904619140625,-0.19580078125,-0.6956787109375,-0.2995147705078125
1665946246887701200,3.914701171875,-0.1317596435546875,-0.7102203369140625,-0.3462371826171875
1665946246897783300,3.924783203125,-0.0361480712890625,-0.7574310302734375,-0.381805419921875
1665946246907864300,3.9348642578125,0.05999755859375,-0.8387298583984375,-0.3049774169921875
1665946246917946400,3.9449462890625,-0.1470184326171875,-0.9632720947265625,-0.2508392333984375
1665946246928028400,3.9550283203125,-0.3381195068359375,-1.112457275390625,-0.1728515625
1665946246938110500,3.9651103515625,-0.42236328125,-1.2581634521484375,-0.106414794921875
1665946246948192300,3.975192138671875,-0.360687255859375,-1.2887115478515625,-0.147674560546875
1665946246958274000,3.985274169921875,-0.2642669677734375,-1.258514404296875,-0.148590087890625
1665946246968355000,3.99535498046875,-0.1943206787109375,-1.207000732421875,-0.169189453125
1665946246978437000,4.00543701171875,-0.0878143310546875,-1.1881103515625,-0.163482666015625
1665946246988519200,4.015519287109375,0.040496826171875,-1.16497802734375,-0.1988677978515625
1665946246998601200,4.025601318359375,0.43115234375,-0.6185760498046875,-0.22625732421875
1665946247008683300,4.035683349609375,0.816680908203125,-1.6667633056640625,-1.239990234375
1665946247018764300,4.045764404296875,0.5310821533203125,-2.884552001953125,-0.7689208984375
1665946247028846300,4.055846435546875,-0.1804962158203125,-1.5851898193359375,-0.1921844482421875
1665946247038928400,4.065928466796875,-0.9151763916015625,-1.3179931640625,0.93475341796875
1665946247049010200,4.07601025390625,-0.750335693359375,-1.0187530517578125,1.0259246826171875
1665946247059092200,4.08609228515625,0.003387451171875,-1.1812744140625,0.3580169677734375
1665946247069173200,4.09617333984375,-0.0068206787109375,-1.2653045654296875,0.252349853515625
1665946247079255300,4.10625537109375,-0.378173828125,-1.59967041015625,0.6308135986328125
1665946247089337300,4.11633740234375,-0.1742095947265625,-0.923492431640625,-0.1279754638671875
1665946247099419400,4.12641943359375,-0.12493896484375,-0.73443603515625,0.033660888671875
1665946247109501200,4.136501220703125,0.018310546875,-0.4747314453125,-0.1724395751953125
1665946247119583200,4.146583251953125,0.2099609375,-0.3102569580078125,-0.35577392578125
1665946247129664300,4.156664306640625,0.0995941162109375,-0.511932373046875,-0.0505218505859375
1665946247139746300,4.166746337890625,-0.1386871337890625,-0.564117431640625,0.02410888671875
1665946247149828000,4.176828125,-0.258087158203125,-0.5395965576171875,-0.0232086181640625
1665946247159910100,4.18691015625,-0.2569580078125,-0.5596160888671875,-0.05938720703125
1665946247169992200,4.1969921875,-0.2386322021484375,-0.61334228515625,-0.1007232666015625
1665946247180073200,4.2070732421875,-0.2113037109375,-0.6307373046875,-0.131561279296875
1665946247190155300,4.2171552734375,-0.1956024169921875,-0.7236328125,-0.139251708984375
1665946247200237300,4.2272373046875,-0.181549072265625,-0.81341552734375,-0.1380615234375
1665946247210319400,4.2373193359375,-0.2003173828125,-0.8594207763671875,-0.12713623046875
1665946247220401400,4.2474013671875,-0.2393646240234375,-0.8558197021484375,-0.08062744140625
1665946247230483200,4.257483154296875,-0.2216796875,-0.8491363525390625,-0.013519287109375
1665946247240564200,4.267564208984375,-0.2237396240234375,-0.9428253173828125,-0.0084075927734375
1665946247250646300,4.277646240234375,-0.2330474853515625,-0.97418212890625,-0.0596466064453125
1665946247260728300,4.287728271484375,-0.2710418701171875,-0.9272308349609375,-0.0565338134765625
1665946247270810000,4.29781005859375,-0.357177734375,-0.9280242919921875,-0.0946197509765625
1665946247280892200,4.30789208984375,-0.4005889892578125,-0.9381103515625,-0.1070556640625
1665946247290973200,4.31797314453125,-0.42926025390625,-0.9319915771484375,-0.103118896484375
1665946247301055200,4.32805517578125,-0.4911956787109375,-0.9172515869140625,-0.1348876953125
1665946247311137300,4.33813720703125,-0.4757537841796875,-0.8968353271484375,-0.1744537353515625
1665946247321219300,4.34821923828125,-0.4985198974609375,-0.9270172119140625,-0.2162017822265625
1665946247331301000,4.358301025390625,-0.5274810791015625,-0.9633636474609375,-0.24859619140625
1665946247341383200,4.368383056640625,-0.54766845703125,-1.003631591796875,-0.3097991943359375
1665946247351464200,4.378464111328125,-0.575927734375,-1.054962158203125,-0.355560302734375
1665946247361546200,4.388546142578125,-0.5754852294921875,-1.0833282470703125,-0.3849029541015625
1665946247371628300,4.398628173828125,-0.540130615234375,-1.0748138427734375,-0.3753814697265625
1665946247381710300,4.40871044921875,-0.4761962890625,-1.02593994140625,-0.3502197265625
1665946247391792400,4.41879248046875,-0.4287567138671875,-0.9560699462890625,-0.3089141845703125
1665946247401873400,4.428873291015625,-0.385406494140625,-0.894500732421875,-0.2696075439453125
1665946247411955500,4.43895556640625,-0.3814239501953125,-0.94549560546875,-0.2064056396484375
1665946247422037200,4.449037353515625,-0.370574951171875,-1.135772705078125,-0.170654296875
1665946247432119000,4.459119140625,-0.43817138671875,-1.458709716796875,-0.22747802734375
1665946247442201000,4.469201171875,-0.4780120849609375,-1.795501708984375,-0.4148101806640625
1665946247452283100,4.479283203125,-0.4398040771484375,-1.8880462646484375,-0.5171966552734375
1665946247462364200,4.4893642578125,-0.3683013916015625,-1.5787811279296875,-0.4045562744140625
1665946247472446200,4.4994462890625,-0.2132110595703125,-1.034149169921875,-0.12762451171875
1665946247482528300,4.5095283203125,0.0954742431640625,-0.5009765625,0.1128997802734375
1665946247492610300,4.5196103515625,0.2545013427734375,-0.289215087890625,0.42291259765625
1665946247502692000,4.529692138671875,0.1251068115234375,-0.3304290771484375,0.7050933837890625
1665946247512773400,4.5397734375,-0.0961761474609375,-0.4193267822265625,0.8782501220703125
1665946247522855200,4.549855224609375,-0.3145751953125,-0.4830474853515625,0.9420623779296875
1665946247532937200,4.559937255859375,-0.480926513671875,-0.6650543212890625,0.7609100341796875
1665946247543019300,4.570019287109375,-0.499542236328125,-0.9214630126953125,0.4786529541015625
1665946247553101300,4.580101318359375,-0.280975341796875,-1.0941009521484375,0.189361572265625
1665946247563183400,4.590183349609375,0.05584716796875,-1.13726806640625,-0.0494842529296875
1665946247573264100,4.60026416015625,0.37432861328125,-1.1525421142578125,-0.190185546875
1665946247583346200,4.61034619140625,0.659393310546875,-1.193023681640625,-0.3270416259765625
1665946247593428200,4.62042822265625,0.701751708984375,-1.254669189453125,-0.456512451171875
1665946247603510000,4.630510009765625,0.5227508544921875,-1.3144378662109375,-0.5146026611328125
1665946247613592000,4.640592041015625,0.319305419921875,-1.305511474609375,-0.432830810546875
1665946247623674000,4.650674072265625,0.1371917724609375,-1.209625244140625,-0.3161468505859375
1665946247633755100,4.660755126953125,-0.0445556640625,-1.034698486328125,-0.1775970458984375
1665946247643837200,4.670837158203125,-0.1528472900390625,-0.9615020751953125,-0.0257720947265625
1665946247653919200,4.680919189453125,-0.1697235107421875,-0.851226806640625,0.0555877685546875
1665946247664001300,4.691001220703125,-0.1456451416015625,-0.7034149169921875,0.0562591552734375
1665946247674083300,4.701083251953125,-0.11053466796875,-0.729583740234375,0.0808868408203125
1665946247684165000,4.7111650390625,-0.0270233154296875,-0.8527984619140625,0.0897216796875
1665946247694246400,4.721246337890625,0.1050567626953125,-1.02178955078125,0.0623626708984375
1665946247704328200,4.731328125,0.193756103515625,-1.1048431396484375,-0.015625
1665946247714410200,4.74141015625,0.2064208984375,-1.069580078125,-0.089202880859375
1665946247724492300,4.7514921875,0.19281005859375,-0.963958740234375,-0.1402740478515625
1665946247734574300,4.76157421875,0.18359375,-1.0285797119140625,-0.1512603759765625
1665946247744656400,4.771656494140625,0.1692962646484375,-1.0535125732421875,-0.1231231689453125
1665946247754737200,4.781737060546875,0.1567535400390625,-0.9333343505859375,-0.1413726806640625
1665946247764819200,4.791819091796875,0.1516265869140625,-0.850372314453125,-0.1418609619140625
1665946247774901200,4.8019013671875,0.1422576904296875,-0.8256683349609375,-0.114898681640625
1665946247784983000,4.811983154296875,0.18536376953125,-0.8232421875,-0.0910186767578125
1665946247795065000,4.822065185546875,0.2107086181640625,-0.83331298828125,-0.0820159912109375
1665946247805147100,4.832147216796875,0.240997314453125,-0.8721466064453125,-0.0852813720703125
1665946247815228400,4.842228515625,0.2277984619140625,-0.9942779541015625,-0.0714874267578125
1665946247825310500,4.852310546875,0.1907958984375,-1.038726806640625,-0.09881591796875
1665946247835392500,4.862392578125,0.157745361328125,-1.0135650634765625,-0.1186065673828125
1665946247845474600,4.872474609375,0.13226318359375,-1.0023193359375,-0.0980987548828125
1665946247855556600,4.882556640625,0.1156158447265625,-0.9827423095703125,-0.07147216796875
1665946247865637600,4.8926376953125,0.11566162109375,-0.9640960693359375,-0.05224609375
1665946247875719400,4.902719482421875,0.107757568359375,-0.963043212890625,-0.0344696044921875
1665946247885801500,4.912801513671875,0.11627197265625,-0.9720611572265625,-0.0213623046875
1665946247895883500,4.922883544921875,0.13092041015625,-0.9769744873046875,-0.018463134765625
1665946247905965600,4.932965576171875,0.14501953125,-0.9566650390625,-0.031524658203125
1665946247916047600,4.943047607421875,0.1589508056640625,-0.95172119140625,-0.0364837646484375
1665946247926128600,4.953128662109375,0.16192626953125,-0.9593505859375,-0.025665283203125
1665946247936210700,4.963210693359375,0.169219970703125,-0.9678192138671875,-0.0139007568359375
1665946247946292700,4.973292724609375,0.1884765625,-0.9616546630859375,-0.008514404296875
1665946247956374500,4.98337451171875,0.2171478271484375,-0.961334228515625,-0.0173797607421875
1665946247966456300,4.993456298828125,0.2432098388671875,-0.9730224609375,-0.0327606201171875
1665946247976538400,5.003538330078125,0.24700927734375,-0.987213134765625,-0.085296630859375
1665946247986619400,5.013619384765625,0.241607666015625,-0.997406005859375,-0.13531494140625
1665946247996701400,5.023701416015625,0.2384796142578125,-0.9972991943359375,-0.1417083740234375
1665946248006783500,5.033783447265625,0.2189788818359375,-0.999542236328125,-0.195770263671875
1665946248016865500,5.043865478515625,0.21734619140625,-1.0185699462890625,-0.1566925048828125
1665946248026947600,5.053947509765625,0.20489501953125,-1.0375213623046875,-0.1065216064453125
1665946248037029600,5.064029541015625,0.1890106201171875,-1.0450286865234375,-0.062530517578125
1665946248047110700,5.074110595703125,0.17108154296875,-1.0399322509765625,-0.023590087890625
1665946248057192400,5.0841923828125,0.14678955078125,-1.03021240234375,0.0048675537109375
1665946248067274500,5.0942744140625,0.117828369140625,-1.018096923828125,0.018157958984375
1665946248077356500,5.1043564453125,0.0910797119140625,-1.00042724609375,0.010986328125
1665946248087438600,5.1144384765625,0.08306884765625,-0.979461669921875,-0.03753662109375
1665946248097520600,5.124520751953125,0.1401824951171875,-1.0402679443359375,-0.0832672119140625
1665946248107601700,5.1346015625,0.2340850830078125,-1.1970367431640625,-0.079498291015625
1665946248117683700,5.14468359375,0.212188720703125,-1.2964019775390625,-0.046661376953125
1665946248127765500,5.154765625,0.1369171142578125,-1.3188934326171875,0.0015411376953125
1665946248137847300,5.164847412109375,0.1532135009765625,-1.2944183349609375,0.0204925537109375
1665946248147929300,5.174929443359375,0.2810516357421875,-1.26483154296875,0.012054443359375
1665946248158011400,5.185011474609375,0.4227447509765625,-1.298065185546875,0.0233917236328125
1665946248168093400,5.195093505859375,0.430755615234375,-1.37188720703125,-0.0207061767578125
1665946248178174500,5.205174560546875,0.2757568359375,-1.3766021728515625,-0.0631561279296875
1665946248188256500,5.215256591796875,0.1118316650390625,-1.28057861328125,0.016021728515625
1665946248198338600,5.225338623046875,0.0336456298828125,-1.1765899658203125,0.0617523193359375
1665946248208420600,5.235420654296875,0.03338623046875,-1.1353759765625,0.0996246337890625
1665946248218502400,5.24550244140625,0.0624237060546875,-1.1114501953125,0.166168212890625
1665946248228584400,5.25558447265625,0.104705810546875,-1.0936737060546875,0.23883056640625
1665946248238665500,5.26566552734375,0.1343231201171875,-1.11248779296875,0.346099853515625
1665946248248747500,5.27574755859375,0.109405517578125,-1.133514404296875,0.49139404296875
1665946248258829600,5.28582958984375,0.068115234375,-1.1681976318359375,0.6387786865234375
1665946248268911600,5.29591162109375,0.042999267578125,-1.2091827392578125,0.7453155517578125
1665946248278993700,5.30599365234375,0.01849365234375,-1.264801025390625,0.768096923828125
1665946248289075700,5.31607568359375,0.0135498046875,-1.284515380859375,0.6830596923828125
1665946248299156500,5.326156494140625,0.064697265625,-1.23272705078125,0.5306854248046875
1665946248309238500,5.336238525390625,0.1366119384765625,-1.1407318115234375,0.389373779296875
1665946248319320300,5.3463203125,0.18231201171875,-1.0391998291015625,0.2589874267578125
1665946248329402400,5.35640234375,0.1922454833984375,-0.967529296875,0.125946044921875
1665946248339484400,5.366484375,0.209197998046875,-0.920196533203125,-0.0067596435546875
1665946248349566500,5.37656640625,0.2386474609375,-0.8591461181640625,-0.0614013671875
1665946248359648500,5.3866484375,0.22503662109375,-0.789825439453125,-0.056732177734375
1665946248369729500,5.3967294921875,0.2296600341796875,-0.7709503173828125,-0.0485992431640625
1665946248379811600,5.4068115234375,0.2231597900390625,-0.7630462646484375,-0.0075225830078125
1665946248389893600,5.4168935546875,0.2029876708984375,-0.724578857421875,0.0688629150390625
1665946248399975400,5.426975341796875,0.1958770751953125,-0.6873931884765625,0.1608428955078125
1665946248410057500,5.437057373046875,0.190338134765625,-0.6644287109375,0.2328643798828125
1665946248420139500,5.447139404296875,0.143218994140625,-0.63543701171875,0.283477783203125
1665946248430220500,5.457220458984375,0.0919036865234375,-0.6081695556640625,0.3115997314453125
1665946248440302600,5.467302490234375,0.0655975341796875,-0.5955047607421875,0.309417724609375
1665946248450384600,5.477384521484375,0.040985107421875,-0.58868408203125,0.2884979248046875
1665946248460466700,5.487466796875,0.0318145751953125,-0.594146728515625,0.2445220947265625
1665946248470548700,5.497548828125,0.0241851806640625,-0.606048583984375,0.182373046875
1665946248480630500,5.507630615234375,0.0003662109375,-0.6162261962890625,0.1038360595703125
1665946248490712600,5.517712646484375,-0.0298919677734375,-0.6151275634765625,0.0136871337890625
1665946248500793300,5.52779345703125,-0.066741943359375,-0.6083221435546875,-0.06512451171875
1665946248510875400,5.53787548828125,-0.11639404296875,-0.6115570068359375,-0.1199188232421875
1665946248520957400,5.54795751953125,-0.1597442626953125,-0.6238250732421875,-0.13604736328125
1665946248531039500,5.55803955078125,-0.165130615234375,-0.646514892578125,-0.1175994873046875
1665946248541121500,5.56812158203125,-0.1569366455078125,-0.6771392822265625,-0.078887939453125
1665946248551203600,5.57820361328125,-0.1848602294921875,-0.722930908203125,-0.028564453125
1665946248561285400,5.588285400390625,-0.2441864013671875,-0.784149169921875,-0.007110595703125
1665946248571366700,5.59836669921875,-0.335540771484375,-0.851043701171875,-0.0114288330078125
1665946248581448400,5.608448486328125,-0.4533233642578125,-0.9292449951171875,-0.03240966796875
1665946248591530500,5.618530517578125,-0.582794189453125,-0.9957427978515625,-0.05828857421875
1665946248601612500,5.628612548828125,-0.7123260498046875,-1.0176849365234375,-0.0655670166015625
1665946248611694600,5.638694580078125,-0.848724365234375,-1.021697998046875,-0.0674591064453125
1665946248621776600,5.648776611328125,-0.8245697021484375,-1.03448486328125,-0.0791168212890625
1665946248631858700,5.658858642578125,-0.475616455078125,-1.03192138671875,-0.0440521240234375
1665946248641939700,5.668939697265625,0.0345306396484375,-0.99365234375,0.042510986328125
1665946248652021800,5.679021728515625,0.281585693359375,-1.0936431884765625,0.0586090087890625
1665946248662103300,5.689103271484375,0.050750732421875,-1.442169189453125,-0.0655670166015625
1665946248672185300,5.699185302734375,-0.537109375,-1.93902587890625,-0.2484283447265625
1665946248682267400,5.709267333984375,-0.81353759765625,-2.397918701171875,-0.2183685302734375
1665946248692349400,5.719349365234375,-0.4557037353515625,-2.3751220703125,0.00128173828125
1665946248702431500,5.729431396484375,-0.0112762451171875,-2.178192138671875,0.0846405029296875
1665946248712512500,5.739512451171875,-0.0489044189453125,-2.213836669921875,-0.0019683837890625
1665946248722594600,5.749594482421875,-0.33306884765625,-2.4650421142578125,0.012664794921875
1665946248732676600,5.759676513671875,-0.3813934326171875,-2.4927520751953125,0.036468505859375
1665946248742758400,5.76975830078125,-0.2332916259765625,-2.6185302734375,0.2003173828125
1665946248752840400,5.77984033203125,-0.0555267333984375,-2.5651397705078125,0.234649658203125
1665946248762922500,5.789922607421875,0.0137786865234375,-2.6269989013671875,0.29083251953125
1665946248773004500,5.800004638671875,-0.081695556640625,-2.4652252197265625,0.2561187744140625
1665946248783085600,5.81008544921875,-0.2109527587890625,-2.11981201171875,0.249420166015625
1665946248793167600,5.820167724609375,-0.19525146484375,-1.7077178955078125,0.27197265625
1665946248803249700,5.830249755859375,-0.0788421630859375,-1.302032470703125,0.2304229736328125
1665946248813331700,5.840331787109375,-0.00457763671875,-0.9267425537109375,0.1893157958984375
1665946248823413500,5.85041357421875,-0.048370361328125,-0.645751953125,0.208587646484375
1665946248833495600,5.86049560546875,-0.1443328857421875,-0.3294525146484375,0.215576171875
1665946248843577600,5.87057763671875,-0.177490234375,-0.0621490478515625,0.1983642578125
1665946248853658600,5.88065869140625,-0.04876708984375,0.098663330078125,0.109893798828125
1665946248863740700,5.89074072265625,0.191314697265625,0.13433837890625,-0.0247955322265625
1665946248873822700,5.90082275390625,0.4228668212890625,0.1583099365234375,-0.1529693603515625
1665946248883904800,5.91090478515625,0.390411376953125,0.1942901611328125,-0.30108642578125
1665946248893986800,5.92098681640625,0.2347259521484375,0.2060546875,-0.4414215087890625
1665946248904068600,5.931068603515625,0.0225067138671875,0.1845703125,-0.4327392578125
1665946248914150700,5.941150634765625,-0.15673828125,0.1923980712890625,-0.408782958984375
1665946248924231700,5.951231689453125,-0.2231903076171875,0.1356353759765625,-0.341888427734375
1665946248934313700,5.961313720703125,-0.224273681640625,0.038360595703125,-0.2574310302734375
1665946248944395500,5.9713955078125,-0.13720703125,-0.0182037353515625,-0.203399658203125
1665946248954477600,5.9814775390625,-0.0409088134765625,-0.005828857421875,-0.1465301513671875
1665946248964559600,5.9915595703125,0.0617523193359375,-0.006439208984375,-0.1016693115234375
1665946248974641700,6.0016416015625,0.1541595458984375,0.008453369140625,-0.01654052734375
1665946248984723500,6.011723388671875,0.187042236328125,0.0354156494140625,0.110748291015625
1665946248994805500,6.021805419921875,0.1522216796875,0.0504608154296875,0.1947784423828125
1665946249004886500,6.031886474609375,0.1041107177734375,0.058990478515625,0.2139434814453125
1665946249014968600,6.041968505859375,0.052093505859375,0.0415802001953125,0.1773681640625
1665946249025050600,6.052050537109375,-0.016265869140625,-0.0173492431640625,0.0915985107421875
1665946249035132700,6.062132568359375,-0.0581207275390625,-0.0804443359375,0.01226806640625
1665946249045214700,6.072214599609375,-0.049560546875,-0.1070556640625,-0.0369720458984375
1665946249055296800,6.082296875,-0.0122528076171875,-0.100250244140625,-0.0423583984375
1665946249065378600,6.092378662109375,-0.0006866455078125,-0.0926513671875,-0.0142669677734375
1665946249075459800,6.1024599609375,-0.0453338623046875,-0.074371337890625,0.024169921875
1665946249085541600,6.112541748046875,-0.112335205078125,-0.0388031005859375,0.05926513671875
1665946249095623700,6.122623779296875,-0.142547607421875,-0.0275421142578125,0.0522918701171875
1665946249105705700,6.132705810546875,-0.095001220703125,-0.0644378662109375,0.02301025390625
1665946249115787800,6.142787841796875,-0.0193939208984375,-0.1413116455078125,0.02410888671875
1665946249125869800,6.152869873046875,-0.0530548095703125,-0.250518798828125,0.0653228759765625
1665946249135952000,6.162951904296875,-0.196990966796875,-0.447113037109375,0.0671234130859375
1665946249146033700,6.17303369140625,-0.2509002685546875,-0.83203125,0.0557861328125
1665946249156114700,6.18311474609375,-0.392364501953125,-1.4761810302734375,0.1326141357421875
1665946249166196500,6.193196533203125,-0.7724151611328125,-2.9524993896484375,0.156280517578125
1665946249176278500,6.203278564453125,-0.262054443359375,-4.359649658203125,0.044708251953125
1665946249186360600,6.213360595703125,0.0926666259765625,-5.374420166015625,0.1456451416015625
1665946289505093400,46.53209326171875,-0.50103759765625,-0.6501312255859375,0.5950927734375
1665946289515174100,46.542174072265624,-0.47784423828125,-0.68878173828125,0.550933837890625
1665946289525256200,46.552256103515624,-0.4350433349609375,-0.7235107421875,0.5218048095703125
1665946289535337200,46.56233715820313,-0.4009246826171875,-0.747283935546875,0.53839111328125
1665946289545419300,46.57241918945312,-0.3275146484375,-0.717071533203125,0.63720703125
1665946289555501300,46.58250122070312,-0.1828155517578125,-0.597259521484375,0.8580169677734375
1665946289565582300,46.592582275390626,-0.232666015625,-0.509674072265625,0.74615478515625
1665946289575664400,46.60266430664063,-0.2959136962890625,-0.51715087890625,0.5630340576171875
1665946289585746200,46.61274609375,-0.227783203125,-0.5956573486328125,0.506683349609375
1665946289595827500,46.622827392578124,-0.292327880859375,-0.6514434814453125,0.4705810546875
1665946289605909200,46.6329091796875,-0.3746337890625,-0.655181884765625,0.4051666259765625
1665946289615991300,46.6429912109375,-0.4112091064453125,-0.6561737060546875,0.4028167724609375
1665946289626072000,46.65307202148438,-0.4867095947265625,-0.6277923583984375,0.4283294677734375
1665946289636154000,46.66315405273438,-0.54400634765625,-0.60357666015625,0.467041015625
1665946289646235100,46.673235107421874,-0.5945892333984375,-0.576934814453125,0.513031005859375
1665946289656317200,46.683317138671875,-0.6616363525390625,-0.5651397705078125,0.5524749755859375
1665946289666399200,46.693399169921875,-0.7410736083984375,-0.5694580078125,0.568603515625
1665946289676480300,46.70348022460937,-0.8024749755859375,-0.577728271484375,0.5670166015625
1665946289686562300,46.71356225585937,-0.8285369873046875,-0.566802978515625,0.555816650390625
1665946289696644400,46.72364428710937,-0.836181640625,-0.540283203125,0.527313232421875
1665946289706725400,46.73372534179688,-0.8387298583984375,-0.50946044921875,0.49774169921875
1665946289716807200,46.74380712890625,-0.84039306640625,-0.4627685546875,0.4899749755859375
1665946289726889200,46.75388916015625,-0.858673095703125,-0.38104248046875,0.523834228515625
1665946289736970200,46.76397021484375,-0.8896636962890625,-0.2905731201171875,0.565673828125
1665946289747052300,46.77405224609375,-0.923736572265625,-0.2307281494140625,0.57196044921875
1665946289757133300,46.78413330078125,-0.8646087646484375,-0.20318603515625,0.5783843994140625
1665946289767215400,46.79421533203125,-0.8606719970703125,-0.1757659912109375,0.4224853515625
1665946289777297200,46.80429711914063,-1.0259246826171875,-0.2293548583984375,0.21221923828125
1665946289787378400,46.81437841796875,-1.180816650390625,-0.31640625,0.0655364990234375
1665946289797460200,46.824460205078125,-1.1960906982421875,-0.3403778076171875,0.02276611328125
1665946289807542300,46.834542236328126,-1.2173614501953125,-0.4255523681640625,0.0255126953125
1665946289817623000,46.844623046875,-1.091705322265625,-0.4332275390625,0.1158599853515625
1665946289827705000,46.854705078125,-1.071807861328125,-0.4002685546875,0.1809844970703125
1665946289837787100,46.864787109375,-1.041412353515625,-0.4148101806640625,0.1984405517578125
1665946289847868200,46.8748681640625,-0.9955902099609375,-0.3738555908203125,0.181854248046875
1665946289857950200,46.8849501953125,-0.981109619140625,-0.316070556640625,0.15032958984375
1665946289868031200,46.89503125,-0.95758056640625,-0.3229522705078125,0.1571044921875
1665946289878113300,46.90511328125,-0.934814453125,-0.3767242431640625,0.17694091796875
1665946289888195300,46.9151953125,-0.9312896728515625,-0.407867431640625,0.1782989501953125
1665946289898276400,46.9252763671875,-0.9853668212890625,-0.4174652099609375,0.147369384765625
1665946289908358400,46.9353583984375,-1.008209228515625,-0.368621826171875,0.143280029296875
1665946289918440400,46.9454404296875,-0.90753173828125,-0.2827606201171875,0.1757659912109375
1665946289928521200,46.955521240234376,-0.7843170166015625,-0.2571563720703125,0.2187652587890625
1665946289938603300,46.965603271484376,-0.7740936279296875,-0.2605743408203125,0.2127532958984375
1665946289948685000,46.97568505859375,-0.852264404296875,-0.2771759033203125,0.1618194580078125
1665946289958766300,46.98576635742187,-0.8727569580078125,-0.320709228515625,0.1080169677734375
1665946289968848100,46.99584814453125,-0.851043701171875,-0.3668212890625,0.0918426513671875
1665946289978929200,47.00592919921875,-0.8366851806640625,-0.3755645751953125,0.082763671875
1665946289989011000,47.016010986328126,-0.8256683349609375,-0.3211669921875,0.058746337890625
1665946289999093000,47.02609301757813,-0.8448333740234375,-0.2538604736328125,0.0175933837890625
1665946290009174000,47.036174072265624,-0.86553955078125,-0.2135162353515625,-0.0246124267578125
1665946290019256000,47.046256103515624,-0.90338134765625,-0.18603515625,-0.0611724853515625
1665946290029338000,47.056338134765625,-0.9459228515625,-0.190093994140625,-0.0896453857421875
1665946290039419100,47.06641918945313,-0.9935302734375,-0.2140350341796875,-0.0995330810546875
1665946290049501200,47.07650122070312,-1.033294677734375,-0.2769927978515625,-0.0578155517578125
1665946290059583200,47.08658325195312,-1.0956268310546875,-0.3365631103515625,-0.007720947265625
1665946290069664000,47.0966640625,-1.1547698974609375,-0.3492584228515625,-0.0000457763671875
1665946290079746000,47.10674609375,-1.2064666748046875,-0.321990966796875,-0.1815643310546875
1665946290089828000,47.116828125,-1.2069549560546875,-0.3725738525390625,-0.1236419677734375
1665946290099909000,47.1269091796875,-1.173675537109375,-0.379058837890625,0.0006561279296875
1665946290109991200,47.1369912109375,-1.107818603515625,-0.3111114501953125,0.0247650146484375
1665946290120073000,47.14707299804687,-1.02337646484375,-0.310821533203125,0.0063323974609375
1665946290130154200,47.157154296875,-0.9151153564453125,-0.3147735595703125,-0.02215576171875
1665946290140236000,47.16723608398438,-0.920013427734375,-0.3432159423828125,-0.0335540771484375
1665946290150317300,47.1773173828125,-0.9775848388671875,-0.3990020751953125,-0.03057861328125
1665946290160399000,47.187399169921875,-1.0960235595703125,-0.433013916015625,-0.119232177734375
1665946290170481200,47.197481201171875,-1.194091796875,-0.470855712890625,-0.329193115234375
1665946290180562000,47.20756201171875,-1.015472412109375,-0.6129913330078125,0.020233154296875
1665946290190644000,47.21764404296875,-0.978515625,-0.61053466796875,0.12310791015625
1665946290200726000,47.22772607421875,-0.8905487060546875,-0.4979705810546875,0.0119171142578125
1665946290210807000,47.23780712890625,-0.8679656982421875,-0.484649658203125,-0.1075592041015625
1665946290220889000,47.24788916015625,-0.8446044921875,-0.5734405517578125,-0.1485137939453125
1665946290230971100,47.25797119140625,-0.82135009765625,-0.626617431640625,-0.1114501953125
1665946290241052200,47.26805224609375,-0.8619384765625,-0.5891876220703125,-0.0575714111328125
1665946290251134200,47.27813427734375,-0.874725341796875,-0.5436553955078125,0.009979248046875
1665946290261216300,47.28821630859375,-0.8402557373046875,-0.545379638671875,0.0683135986328125
1665946290271297300,47.29829736328125,-0.808990478515625,-0.5511627197265625,0.0630950927734375
1665946290281379300,47.30837939453125,-0.787078857421875,-0.5464630126953125,0.03118896484375
1665946290291461000,47.31846118164062,-0.7898712158203125,-0.535888671875,0.0063018798828125
1665946290301542100,47.328542236328126,-0.8220367431640625,-0.5258026123046875,-0.013641357421875
1665946290311624000,47.3386240234375,-0.834259033203125,-0.5160064697265625,-0.0062713623046875
1665946290321706000,47.3487060546875,-0.8268890380859375,-0.525177001953125,0.0342559814453125
1665946290331787000,47.358787109375,-0.82708740234375,-0.5396728515625,0.0759429931640625
1665946290341869000,47.368869140625,-0.8262786865234375,-0.5422210693359375,0.07806396484375
1665946290351951000,47.378951171875,-0.822784423828125,-0.5362548828125,0.076202392578125
1665946290362032000,47.3890322265625,-0.8300628662109375,-0.5239715576171875,0.081085205078125
1665946290372114200,47.3991142578125,-0.83612060546875,-0.50927734375,0.0972442626953125
1665946290382196200,47.4091962890625,-0.850067138671875,-0.5049591064453125,0.0908050537109375
1665946290392277000,47.419277099609374,-0.8498382568359375,-0.495941162109375,0.0737457275390625
1665946290402359000,47.429359130859375,-0.838134765625,-0.4849700927734375,0.06591796875
1665946290412440000,47.43944018554687,-0.85687255859375,-0.4888916015625,0.0528564453125
1665946290422522000,47.44952221679687,-0.8803558349609375,-0.512298583984375,0.0556182861328125
1665946290432604200,47.45960424804687,-0.9007110595703125,-0.5217132568359375,0.051239013671875
1665946290442685200,47.469685302734376,-0.88763427734375,-0.523681640625,0.0333404541015625
1665946290452767200,47.47976733398438,-0.856658935546875,-0.532470703125,0.019073486328125
1665946290462849000,47.48984912109375,-0.87164306640625,-0.524658203125,-0.017364501953125
1665946290472930300,47.499930419921874,-0.8762359619140625,-0.539031982421875,-0.00439453125
1665946290483012000,47.51001220703125,-0.8828887939453125,-0.546112060546875,0.0251617431640625
1665946290493094100,47.52009423828125,-0.881927490234375,-0.531036376953125,0.0468597412109375
1665946290503175000,47.5301748046875,-0.85894775390625,-0.521453857421875,0.070220947265625
1665946290513257000,47.54025708007813,-0.8142852783203125,-0.5347900390625,0.0618133544921875
1665946290523339000,47.55033911132813,-0.774749755859375,-0.549591064453125,0.0393524169921875
1665946290533420000,47.560419921875,-0.746826171875,-0.538299560546875,0.035491943359375
1665946290543502000,47.570502197265625,-0.7487030029296875,-0.56146240234375,-0.00640869140625
1665946290553584000,47.580584228515626,-0.761871337890625,-0.596099853515625,-0.0388946533203125
1665946290563665200,47.5906650390625,-0.7890777587890625,-0.6044921875,-0.0687255859375
1665946290573747200,47.60074731445312,-0.7921600341796875,-0.5981903076171875,-0.0935211181640625
1665946290583829200,47.610829345703124,-0.75201416015625,-0.599639892578125,-0.1070709228515625
1665946290593910300,47.62091015625,-0.7275238037109375,-0.6106719970703125,-0.12725830078125
1665946290603992300,47.63099243164063,-0.734161376953125,-0.6281585693359375,-0.1450653076171875
1665946290614074000,47.64107421875,-0.7801513671875,-0.63287353515625,-0.123321533203125
1665946290624155100,47.65115502929687,-0.8383026123046875,-0.6189117431640625,-0.07415771484375
1665946290634237000,47.66123681640625,-0.831298828125,-0.603515625,-0.067535400390625
1665946290644319000,47.671319091796875,-0.7830352783203125,-0.606781005859375,-0.1095428466796875
1665946290654400000,47.68139990234375,-0.66522216796875,-0.6537628173828125,-0.149017333984375
1665946290664482000,47.69148193359375,-0.309417724609375,-0.7360992431640625,-0.24774169921875
1665946290674564000,47.70156420898437,-0.7204742431640625,-0.8050384521484375,-0.3529815673828125
1665946290684646100,47.71164624023437,-0.929107666015625,-0.755615234375,-0.3412933349609375
1665946290694727200,47.72172705078125,-0.90618896484375,-0.6929931640625,-0.20184326171875
1665946290704809200,47.73180932617188,-0.8419036865234375,-0.68145751953125,-0.1462249755859375
1665946290714891300,47.74189135742188,-0.748077392578125,-0.697601318359375,-0.1503448486328125
1665946290724972000,47.75197192382812,-0.740478515625,-0.6989288330078125,-0.1083526611328125
1665946290735054000,47.76205419921875,-0.7148284912109375,-0.676239013671875,-0.1267547607421875
1665946290745136000,47.77213623046875,-0.6689605712890625,-0.6474609375,-0.18096923828125
1665946290755217200,47.78221704101563,-0.6958465576171875,-0.6324310302734375,-0.169647216796875
1665946290765299200,47.79229931640625,-0.8071136474609375,-0.649810791015625,-0.1163482666015625
1665946290775381000,47.80238110351563,-0.8773345947265625,-0.677520751953125,-0.0823211669921875
1665946290785462000,47.8124619140625,-0.8385162353515625,-0.6781005859375,-0.1005401611328125
1665946290795544000,47.8225439453125,-0.76068115234375,-0.6587982177734375,-0.1461181640625
1665946290805626000,47.832626220703126,-0.713043212890625,-0.64556884765625,-0.1603546142578125
1665946290815707100,47.84270703125,-0.6992034912109375,-0.640380859375,-0.1403656005859375
1665946290825789200,47.8527890625,-0.6910552978515625,-0.6473846435546875,-0.1180419921875
1665946290835871200,47.862871337890624,-0.6876983642578125,-0.6587371826171875,-0.11419677734375
1665946290845952000,47.872951904296876,-0.689910888671875,-0.64959716796875,-0.1086273193359375
1665946290856034000,47.88303393554688,-0.6914520263671875,-0.63983154296875,-0.10845947265625
1665946290866116000,47.8931162109375,-0.7016448974609375,-0.663482666015625,-0.110107421875
1665946290876198100,47.9031982421875,-0.722137451171875,-0.663330078125,-0.1065826416015625
1665946290886279200,47.913279052734374,-0.72039794921875,-0.652252197265625,-0.1006927490234375
1665946290896361200,47.923361328125,-0.7188873291015625,-0.6480255126953125,-0.0945587158203125
1665946290906443000,47.933443115234375,-0.7369232177734375,-0.63458251953125,-0.093017578125
1665946290916524300,47.94352416992187,-0.7720184326171875,-0.621124267578125,-0.084014892578125
1665946290926606000,47.95360620117187,-0.8102569580078125,-0.617034912109375,-0.065765380859375
1665946290936688000,47.96368823242187,-0.8359527587890625,-0.6176300048828125,-0.05682373046875
1665946290946769000,47.973768798828125,-0.86224365234375,-0.616546630859375,-0.056182861328125
1665946290956851000,47.983850830078126,-0.8755645751953125,-0.6068267822265625,-0.055938720703125
1665946290966933000,47.99393310546875,-0.8703460693359375,-0.609649658203125,-0.0391998291015625
1665946290977014800,48.00401489257813,-0.858154296875,-0.61602783203125,-0.026092529296875
1665946290987096800,48.01409692382813,-0.8195648193359375,-0.6191253662109375,-0.0260772705078125
1665946290997179000,48.02417895507813,-0.7848968505859375,-0.61529541015625,-0.031951904296875
1665946291007260000,48.034260009765624,-0.76605224609375,-0.6073760986328125,-0.044189453125
1665946291017342000,48.044342041015625,-0.7577972412109375,-0.6066436767578125,-0.0451202392578125
1665946291027423700,48.054423828125,-0.756683349609375,-0.61370849609375,-0.03753662109375
1665946291037505500,48.064505615234374,-0.7589569091796875,-0.6148529052734375,-0.0350494384765625
1665946291047586600,48.07458666992188,-0.75958251953125,-0.6145782470703125,-0.0296478271484375
1665946291057668600,48.08466870117188,-0.76080322265625,-0.6177215576171875,-0.021484375
1665946291067750700,48.09475073242187,-0.765228271484375,-0.618499755859375,-0.012969970703125
1665946291077831700,48.104831787109376,-0.777923583984375,-0.6181182861328125,-0.0084686279296875
1665946291087913700,48.114913818359376,-0.7850189208984375,-0.6214599609375,-0.0043792724609375
1665946291097995800,48.12499584960938,-0.7849578857421875,-0.6290435791015625,0.0088958740234375
1665946291108076800,48.135076904296874,-0.8024749755859375,-0.6249542236328125,0.0260009765625
1665946291118158800,48.145158935546874,-0.81536865234375,-0.6187591552734375,0.03546142578125
1665946291128241000,48.155240966796875,-0.8191375732421875,-0.6165618896484375,0.02777099609375
1665946291138323000,48.165322998046875,-0.8159027099609375,-0.6233367919921875,0.0172271728515625
1665946291148403700,48.17540380859375,-0.8027801513671875,-0.62811279296875,0.016448974609375
1665946291158485800,48.18548583984375,-0.787628173828125,-0.6298828125,0.0178680419921875
1665946291168567600,48.19556762695313,-0.7729339599609375,-0.629608154296875,0.018096923828125
1665946291178648800,48.20564892578125,-0.770599365234375,-0.628936767578125,0.0194854736328125
1665946291188730600,48.215730712890625,-0.776275634765625,-0.631500244140625,0.0211639404296875
1665946291198812700,48.225812744140626,-0.7843780517578125,-0.6340789794921875,0.0243682861328125
1665946291208894700,48.235894775390626,-0.7845916748046875,-0.6359100341796875,0.0242767333984375
1665946291218975700,48.24597583007812,-0.786590576171875,-0.63616943359375,0.023040771484375
1665946291229057800,48.256057861328124,-0.8049468994140625,-0.6330413818359375,0.020599365234375
1665946291239139800,48.266139892578124,-0.8160400390625,-0.6288909912109375,0.0177764892578125
1665946291249220900,48.27622094726563,-0.81817626953125,-0.6273651123046875,0.0123291015625
1665946291259303000,48.28630297851562,-0.8121490478515625,-0.62835693359375,0.0051422119140625
1665946291269384700,48.296384765625,-0.813323974609375,-0.631988525390625,0.0103302001953125
1665946291279466800,48.306466796875,-0.8246917724609375,-0.6299285888671875,0.0145263671875
1665946291289547800,48.3165478515625,-0.830841064453125,-0.6244354248046875,0.0164642333984375
1665946291299629600,48.326629638671875,-0.834228515625,-0.621185302734375,0.029327392578125
1665946291309711600,48.336711669921876,-0.821380615234375,-0.6199493408203125,0.035858154296875
1665946291319792600,48.34679272460937,-0.7995758056640625,-0.6165618896484375,0.0316925048828125
1665946291329874700,48.35687475585937,-0.7925872802734375,-0.6173248291015625,0.02813720703125
1665946291339956700,48.36695678710937,-0.7936859130859375,-0.6226043701171875,0.0193023681640625
1665946291350038800,48.377038818359374,-0.79205322265625,-0.6241607666015625,0.021270751953125
1665946291360119800,48.38711987304688,-0.809112548828125,-0.6203765869140625,0.04888916015625
1665946291370201900,48.39720190429688,-0.8170166015625,-0.6198577880859375,0.0607452392578125
1665946291380284000,48.40728393554687,-0.7942657470703125,-0.60992431640625,0.043792724609375
1665946291390364700,48.41736474609375,-0.776763916015625,-0.6128387451171875,0.028900146484375
1665946291400446700,48.42744677734375,-0.7783355712890625,-0.6125946044921875,0.02911376953125
1665946291410528800,48.43752880859375,-0.786163330078125,-0.6143035888671875,0.0383758544921875
1665946291420610600,48.447610595703125,-0.7859039306640625,-0.6072235107421875,0.0495147705078125
