time,seconds_elapsed,z,y,x
1665946243008738800,0.03573876953125,-0.5618699128955602,0.07615794152915477,-0.04141912977164611
1665946243018819800,0.04581982421875,-0.7561269951045513,0.043287353062629694,-0.00872632729113102
1665946243028902000,0.05590185546875,-0.7371428931713104,-0.02458206807076931,0.004468541982490569
1665946243038984000,0.06598388671875,-0.6097071843475103,0.007566051340103149,0.09839008547291159
1665946243049065700,0.076065673828125,-0.6653074910163879,0.18178163151741028,-0.1376472331713885
1665946243059146800,0.086146728515625,-0.3585439735680818,0.13954349524676798,0.6553039103310555
1665946243069228500,0.096228515625,0.4086579577803611,-0.4547925169676542,0.09125058898180723
1665946243079310600,0.106310546875,0.47528760798573494,0.21044249333441256,-0.1631973790893331
1665946243089392600,0.116392578125,0.35820436635017394,-0.014375731354951857,0.3321570480324328
1665946243099473700,0.1264736328125,0.009187515062093735,-0.45933483657240864,0.31128859365731476
1665946243109555700,0.1365556640625,-0.19368015910387038,-0.484524807408452,0.23852263265401125
1665946243119637800,0.1466376953125,-0.49584758093357084,-0.4088444202631712,0.14861100065838545
1665946243129719800,0.1567197265625,-0.5869412257879972,-0.3186053464114666,0.1849634764239192
1665946243139800800,0.16680078125,-0.49119361764788627,-0.14471066875159738,0.23992161273173987
1665946243149883000,0.1768828125,-0.5000596456706523,-0.03583762157857418,0.20895050121098754
1665946243159964700,0.186964599609375,-0.41012101607024665,-0.04030570690333843,0.06947371452488005
1665946243170046700,0.197046630859375,0.13442951323390007,0.09761749366521835,-0.04159238571301102
1665946243180128800,0.207128662109375,0.5528764591008425,0.32804888206124305,-0.11815225910656153
1665946243190209500,0.21720947265625,0.4293739980727434,0.23572715671658515,-0.005166150591522455
1665946243200291600,0.22729150390625,0.13798399084508417,-0.09906184725463389,0.14450637835115193
1665946243210373600,0.23737353515625,-0.1181979248791933,-0.06145663148164749,0.1399762606408447
1665946243220455700,0.24745556640625,-0.16191899318397043,0.04128945724368095,-0.04702610119953751
1665946243230536700,0.25753662109375,-0.036464813566207885,0.03939560632109642,-0.2293606173593551
1665946243240618800,0.26761865234375,0.2356722116589546,-0.2965443212509155,-0.2121736279759556
1665946243250700800,0.27770068359375,0.35395430769026276,-0.21167174286842344,-0.21649770172014832
1665946243260782600,0.287782470703125,0.6082447105795145,-0.11316752949655055,-0.15896511181443929
1665946243270864000,0.29786376953125,0.24219839855730532,-0.06708148562610149,-0.11131905208565294
1665946243280945700,0.307945556640625,-0.3950795142829418,-0.16107903522849082,0.028520576563477514
1665946243291027700,0.31802783203125,-0.7912707892000674,-0.3915630305945873,0.22557781088501214
1665946243301109800,0.32810986328125,-0.048424131429195404,-0.27541911563575266,-0.0011327303569763898
1665946243311190800,0.338190673828125,0.8045493729680776,-0.09808218856751919,-0.16897760645858942
1665946243321272800,0.34827294921875,0.6696241851717233,0.08712123409211635,-0.3493807892296463
1665946243331355000,0.35835498046875,-0.03196457953751087,-0.0953320130765438,-0.09581789689734578
1665946243341436700,0.368436767578125,-0.32038813817501066,-0.46751989659368987,0.055955111455917354
1665946243351518700,0.378518798828125,0.0767839644730091,-0.6147837569594383,0.14273688446059823
1665946243361599700,0.388599853515625,0.6582078881442547,-0.3826847276121378,0.17247231670655308
1665946243371681800,0.398681884765625,0.7989701115310192,-0.05656827491819858,-0.07343940328545868
1665946243381763600,0.408763671875,0.7814367929279804,0.17684300607144832,-0.29740999816954133
1665946243391845600,0.418845703125,0.7175912204831838,0.46469490230083466,-0.1556410088930279
1665946243401926700,0.4289267578125,0.610384645217657,0.7916466367751359,-0.04403955966942012
1665946243412008700,0.4390087890625,0.312172098493576,1.1405524289041757,0.17631540200076995
1665946243422090800,0.4490908203125,0.16048925264179706,1.4048048383593559,0.719615931243822
1665946243432172800,0.4591728515625,0.006053893211483955,0.4898445411264896,0.6630914224021136
1665946243442253800,0.46925390625,-0.09063596421480179,-0.1821060411661863,0.07921250679418444
1665946243452335900,0.4793359375,0.06455810462832451,0.11218202559053897,-0.573362490029633
1665946243462418000,0.48941796875,0.44505555132925506,0.4537316097378731,-1.088507257433608
1665946243472500000,0.4995,0.8614601777136325,0.8374895195394754,-1.0795186990097165
1665946243482580700,0.509580810546875,1.2523282117813825,1.0954033736228943,-0.5736783510457724
1665946243492662800,0.519662841796875,1.5074398679256438,1.1719780792593955,0.1627083899959922
1665946243502744600,0.52974462890625,1.5933178239583967,0.8615180453807115,0.4575906232535839
1665946243512826600,0.53982666015625,-0.5623538970202208,0.4560749579936266,-0.7445672710184007
1665946243522908700,0.54990869140625,-3.3688357971072196,0.9559592470973729,-1.3480962781876324
1665946243532989700,0.55998974609375,-3.408080596780777,1.7298054387658834,-1.0350497349470853
1665946243543071700,0.57007177734375,-3.3427947623997927,1.7806278635084627,-1.1135370692718773
1665946243553153800,0.58015380859375,-2.336876429390907,1.4853455250173806,-1.1460332714680581
1665946243563235800,0.59023583984375,-1.4186568381011486,1.1991916648775338,-1.1736252619445324
1665946243573316900,0.60031689453125,-0.48143736278712745,0.8917337354242801,-0.6497720682322978
1665946243583399000,0.61039892578125,0.08851239618957042,0.35080081209540365,-0.18790303700715302
1665946243593480700,0.620480712890625,0.2066419320076704,-0.18034487671256064,0.0648868981912732
1665946243603562800,0.630562744140625,0.06879822641611098,-0.0835901373565197,0.46294440537169573
1665946243613643500,0.6406435546875,1.4746534506112337,-1.7086890009790658,3.137971862512827
1665946243623725600,0.6507255859375,2.9474153883874417,-5.421057080483436,6.096954354575276
1665946243633807600,0.6608076171875,1.8824030613750218,-4.192785451593995,2.1421846090264616
1665946243643889700,0.6708896484375,1.3479688524156808,-0.9475362866669893,-0.894689589555189
1665946243653970700,0.680970703125,0.4771919803023338,0.06761340054571628,-0.603854512796551
1665946243664052700,0.691052734375,-0.10961772806048392,-0.43345980608165263,-0.8240838022604584
1665946243674134800,0.701134765625,-0.32740766154825685,-0.8854775976389646,-0.9588039690040051
1665946243684216800,0.711216796875,-0.5645762492448091,-0.752009622913599,-0.7236302814517169
1665946243694298600,0.721298583984375,-0.8898346238046884,-0.3222428261309862,-0.22996990836411713
1665946243704380000,0.7313798828125,-1.045785063973069,0.22211890260279177,0.15795805366374552
1665946243714461700,0.741461669921875,-0.6052414371103048,0.5170347458690404,0.36727044698968525
1665946243724543700,0.751543701171875,-0.05721007995307445,0.5735445685982704,0.6300349559746682
1665946243734625800,0.761625732421875,0.3386521091401577,0.46639410743415355,0.4951939393304288
1665946243744706600,0.77170654296875,0.5501286216974258,0.24709961460232732,0.30811434753537176
1665946243754788600,0.78178857421875,0.7783183686465025,0.00006195932030677795,0.011222381890565156
1665946243764870700,0.79187060546875,0.9221066618561744,-0.22350772661268709,-0.22709756779819726
1665946243774952700,0.80195263671875,0.6555939062535763,-0.3303384543031454,-0.3037079292699694
1665946243785033700,0.81203369140625,0.3426023080706596,-0.21800679110884666,-0.2638295078679919
1665946243795115800,0.82211572265625,0.023653262788057326,-0.08917349044680595,-0.25898206783682104
1665946243805197800,0.83219775390625,-0.19968553699851035,-0.06375204894244671,-0.30278014690056443
1665946243815279400,0.842279296875,-0.40085283698737617,-0.07401508428156375,-0.39634325060844416
1665946243825361400,0.852361328125,-0.511423920249939,-0.1120060845017433,-0.4301252548314631
1665946243835442400,0.8624423828125,-0.4355471337497234,-0.10970891347527503,-0.46794002170190213
1665946243845524500,0.8725244140625,-0.3930880482047796,-0.09278642024695873,-0.4590606958061456
1665946243855606500,0.8826064453125,-0.2661445068120956,-0.15653905371129512,-0.34057430937439204
1665946243865688600,0.8926884765625,-0.1500520297795534,-0.23458850807547568,-0.3301211582906544
1665946243875769300,0.902769287109375,0.18918810838162897,-0.18953005368709563,-0.4232707127615809
1665946243885851400,0.912851318359375,0.6676525928378105,-0.10446107594966887,-0.467168160546571
1665946243895933400,0.922933349609375,0.8609820388078689,-0.2441770051538944,-0.6418272467076778
1665946243906015500,0.933015380859375,0.8570768480628729,-0.3368640566796064,-0.6449502010338009
1665946243916096500,0.943096435546875,0.7027537168353796,-0.34201194096207616,-0.4911288818486035
1665946243926178600,0.953178466796875,0.3017120792776346,-0.3833551742196083,-0.2882917489513755
1665946243936260400,0.96326025390625,-0.15292846199870108,-0.4296101449161768,-0.1725721968844533
1665946243946342400,0.97334228515625,-0.3779220432549715,-0.4109972143828869,-0.18353358975127337
1665946243956424400,0.983424560546875,-0.34795945118963717,-0.35134909362792965,-0.329348858743906
1665946243966505500,0.99350537109375,-0.2506651981294155,-0.352277314388752,-0.46398463513962923
1665946243976587500,1.00358740234375,-0.16794424482285975,-0.3820645498871803,-0.5381562251571566
1665946243986669600,1.013669677734375,-0.06686930418014526,-0.5498024584829807,-0.4252871671505272
1665946243996751600,1.023751708984375,-0.15177636935412883,-0.48511400547325606,-0.3146148885358125
1665946244006832600,1.03383251953125,-0.12698445792496205,-0.495235586515069,-0.22563538629114627
1665946244016914700,1.043914794921875,0.05029869312942028,-0.655029258108139,-0.1432861889064312
1665946244026996500,1.05399658203125,0.3770201259791851,-0.8930284514099359,0.0026357553310692307
1665946244037078300,1.064078369140625,0.1895873368322849,-0.9007996699333191,-0.1515406609021127
1665946244047159600,1.07415966796875,-0.10093465538918972,-0.787765411427617,-0.250229729321599
1665946244057241300,1.084241455078125,-0.11699439430832863,-0.6818605664104223,-0.2804730380244553
1665946244067323400,1.094323486328125,-0.16691607081890106,-0.5322825838834047,-0.2800499172415584
1665946244077405400,1.104405517578125,-0.2813993590891361,-0.5287491490602493,-0.29166239442825315
1665946244087487500,1.114487548828125,-0.30460370906591416,-0.4977145438492298,-0.4292816436141729
1665946244097568500,1.124568603515625,-0.26516718621253965,-0.2983545855432749,-0.40011648553684354
1665946244107650600,1.134650634765625,-0.21115385647416113,-0.08567454241514205,-0.3334184462703764
1665946244117732600,1.144732666015625,-0.17394260845482348,-0.18568331513106823,-0.2524099229048937
1665946244127814700,1.154814697265625,-0.21000176382958888,-0.14996201340854168,-0.08720745107084513
1665946244137895700,1.164895751953125,-0.3887041340321302,0.0477051695048809,0.108871585868299
1665946244147977500,1.1749775390625,-0.4338742321014404,0.22699264611899853,0.24404249205403028
1665946244158059500,1.1850595703125,-0.3396785295784473,0.31639760723412036,0.32143764722794294
1665946244168141600,1.1951416015625,-0.23767303008735177,0.4329945266574621,0.33899259314090013
1665946244178222300,1.205222412109375,-0.16332944450378417,0.6085153442144393,0.38065197967551645
1665946244188304400,1.215304443359375,-0.1728483834773302,0.6804869399696588,0.31817155810408293
1665946244198386400,1.225386474609375,-0.29071313087940215,0.7021206796288489,0.25087438390068706
1665946244208468500,1.235468505859375,-0.32495617674291133,0.7343173143565654,0.40529527641423047
1665946244218550500,1.245550537109375,-0.295336699026823,0.9543032965838909,0.5736896761573851
1665946244228631600,1.255631591796875,-0.15778876151144502,0.9994406614273786,0.6023577714327722
1665946244238713600,1.265713623046875,-0.04430325210690498,0.9854869548767804,0.5907794157113879
1665946244248795400,1.27579541015625,0.02981120089590549,1.0132692802935839,0.7429007991109043
1665946244258877400,1.28587744140625,0.18808453105390072,1.106711534100771,0.9350045026782899
1665946244268958500,1.29595849609375,0.37302667242884635,1.1191624348729847,1.1357340688370168
1665946244279040500,1.30604052734375,0.37564357692897316,1.1077853008121252,1.2549163285784422
1665946244289122600,1.31612255859375,0.29520927325487134,1.1160089392781256,1.2349174966447054
1665946244299204600,1.32620458984375,0.1882768387556076,0.879846313753724,1.073728352105245
1665946244309285400,1.336285400390625,0.018955460360646246,0.578806434649229,0.8824670176461339
1665946244319367400,1.346367431640625,-0.32503917885124683,0.413917485743761,0.8590962981265038
1665946244329449500,1.356449462890625,-0.7307692664861679,0.3743734108626842,0.9641734601479023
1665946244339531500,1.366531494140625,-1.1384756226301194,0.3509223926484585,1.1396867519855498
1665946244349612500,1.376612548828125,-1.636620959112048,0.5808323875188827,1.2340306308075786
1665946244359694600,1.386694580078125,-1.8008885612487793,0.6197112764894962,1.3481778189912437
1665946244369776400,1.3967763671875,-1.7555366768717764,0.5552765059798955,1.4098814109712838
1665946244379858400,1.4068583984375,-1.655575250428915,0.6442787315130233,1.2984314990475774
1665946244389940500,1.4169404296875,-1.4940566547393799,0.5814940662980079,1.2301850612953305
1665946244400021500,1.427021484375,-1.2057476623922585,0.3187789494127035,1.3096078498393295
1665946244410103600,1.437103515625,-1.1890665767043829,0.399547599607706,1.3586751014776528
1665946244420185600,1.447185546875,-1.1928811665564776,0.38226562541723247,1.1574158854216337
1665946244430267600,1.457267578125,-1.1160580391168593,0.38635552507936954,1.1294884524457156
1665946244440348400,1.467348388671875,-0.9992436775505542,0.23357553164064881,1.1908191194601356
1665946244450430500,1.477430419921875,-0.8436883741796016,0.1977922705978155,1.1190915615938604
1665946244460512500,1.487512451171875,-0.8942220451086759,0.3081277915388346,0.9698920569904148
1665946244470594300,1.49759423828125,-0.39359424416124816,0.14869535447359084,1.0366771900184453
1665946244480676400,1.50767626953125,-0.26562720493972297,-0.09179331755638122,0.9306871509358287
1665946244490757400,1.51775732421875,-0.41013855172693725,0.026159108129143713,0.8027613205075264
1665946244500839400,1.52783935546875,-0.6339946533858776,0.20821721850037572,0.6348650064796209
1665946244510921500,1.53792138671875,-0.7739186723828315,0.30781565684974194,0.5889993273615837
1665946244521003500,1.54800341796875,-0.8074708133727312,0.4565829075157642,0.5552880502872168
1665946244531084500,1.55808447265625,-0.7894137631565332,0.5827741692364216,0.4999883340001106
1665946244541166600,1.56816650390625,-0.9868751943647861,0.5324626166254282,0.5087522168226539
1665946244551248600,1.57824853515625,-1.4533388599038124,0.44607261941730975,0.7383785724461078
1665946244561330400,1.588330322265625,-1.7535294287025927,0.4455225843191147,1.207167758323252
1665946244571411500,1.598411376953125,-1.9651602550387381,0.3599205226182937,1.4771851610459386
1665946244581493500,1.608493408203125,-2.0590128432124852,0.09214753782153129,1.73284232224375
1665946244591575300,1.6185751953125,-1.9392086521804333,0.09647709145843981,1.6315085845343769
1665946244601657300,1.6286572265625,-1.6830080317556857,0.20383447337150573,1.4996854544065892
1665946244611739400,1.638739501953125,-1.628929820087552,0.37387130655944345,1.3864759854644537
1665946244621820400,1.6488203125,-1.980807906025648,0.5523994892388582,0.7559441858835518
1665946244631902500,1.65890234375,-2.4683821641325947,0.3147229520201683,-0.32371289868354797
1665946244641984500,1.668984619140625,-2.148361690226197,2.590722595643997,-1.3173460428759456
1665946244652066600,1.679066650390625,-1.6771745032966137,5.145603478056192,-1.7995885845661161
1665946244662147600,1.689147705078125,-0.9675386257320642,5.39656152165234,-1.2236086055144666
1665946244672229600,1.699229736328125,-0.4019067299544811,4.325606945109367,0.010953063429892062
1665946244682311400,1.7093115234375,-0.837078016129136,3.715957628428936,1.275009414666891
1665946244692393500,1.7193935546875,-2.345013558617234,4.158670416024327,1.8877584509283303
1665946244702475500,1.7294755859375,-2.5370091256350276,4.077767910316586,1.4826149310097096
1665946244712556500,1.739556640625,-2.6201047574728724,3.992845647573471,0.8728402343839406
1665946244722638600,1.749638671875,-3.1606688474893567,4.880368487304449,0.6120283207714557
1665946244732720400,1.759720458984375,-2.391955927056074,5.443288201513886,0.2598854464173317
1665946244742802400,1.769802490234375,-0.4328898972392082,5.17846880582571,-0.229647544541955
1665946244752883500,1.779883544921875,1.0639964279681444,4.431811065334081,-0.13386311152279376
1665946244762965500,1.789965576171875,1.7514400552079081,4.077783692407608,0.4073924678891897
1665946244773047600,1.800047607421875,2.512875093592703,5.073903684979677,2.1408564291626213
1665946244783129300,1.81012939453125,13.26668173329234,4.195750731140375,5.485865360480546
1665946244793210600,1.820210693359375,16.100138734066487,-0.6638000090628862,6.4837336580246685
1665946244803292400,1.83029248046875,1.5628282854095101,-1.72762984829247,2.8411954860717055
1665946244813374200,1.840374267578125,2.2334183930039404,-2.6065561245918274,2.873752186283469
1665946244823456300,1.850456298828125,0.720429366518557,-1.1518956606954336,1.7958873919606209
1665946244833538300,1.860538330078125,0.9793015442401171,-0.5108534268856049,2.836142294335365
1665946244843620400,1.870620361328125,-0.44175212586969137,-0.1988385647803545,4.420910901135206
1665946244853702400,1.880702392578125,-0.961192471575737,1.547052331867814,5.629236889582872
1665946244863783400,1.890783447265625,-3.384437270864844,0.7403525028675794,-3.23272636796236
1665946244873865500,1.900865478515625,-6.610375586122274,-0.3738566935122013,-0.9161106363117695
1665946244883947300,1.910947265625,0.37508082847967744,-0.348043622341752,3.914302272212505
1665946244894029300,1.921029296875,0.2754356283791363,0.22685352990925312,2.8054858747869726
1665946244904110300,1.9311103515625,-1.4224794651292263,0.601285392960906,3.0461300296396017
1665946244914192400,1.9411923828125,-4.226006168672442,1.669931692561507,1.3114730591893196
1665946244924274400,1.9512744140625,-5.176390245985984,0.9663567224711179,1.0359814628392456
1665946244934356500,1.9613564453125,-3.384745313900709,0.12345160762369632,1.6204741264313458
1665946244944437200,1.971437255859375,-2.834644749253988,-0.7640922748953104,4.669720826786756
1665946244954519300,1.981519287109375,-4.25892702602148,0.607018383654952,4.865314710557461
1665946244964601300,1.991601318359375,-4.829654199111461,2.367460952746868,1.8479191924929619
1665946244974683400,2.001683349609375,-4.847459904915094,3.457270451885462,-0.32430969553291794
1665946244984765200,2.01176513671875,-6.163537827551364,4.5000557495206595,1.4081623320937156
1665946244994846500,2.021846435546875,-5.026640414023399,5.485258626759052,5.929765896555781
1665946245004928300,2.03192822265625,-1.6018676256388424,5.764989175853133,9.055577365675568
1665946245015010300,2.04201025390625,4.0065743131965394,4.312237175926566,7.8075711087465285
1665946245025092400,2.05209228515625,11.532847185140847,2.559443075761199,2.720256445790827
1665946245035173400,2.06217333984375,17.63635578366518,2.3399416621804234,-0.09003960575684905
1665946245045255400,2.07225537109375,20.05677909579277,0.9852350259423255,1.8691043116018176
1665946245055337500,2.08233740234375,19.136872574329374,-1.071436222580075,4.099083962328732
1665946245065419500,2.09241943359375,15.391789389181136,-1.7663059081673622,4.409273362572491
1665946245075501600,2.10250146484375,9.699284434780479,-1.0657125842362642,3.192039845047891
1665946245085582300,2.112582275390625,3.4302614489287135,0.2826835536807775,1.9532982600703834
1665946245095664400,2.122664306640625,-1.8588859921872616,1.8521534690618513,0.8785603655964136
1665946245105746200,2.13274609375,-4.926062316986918,2.188193349877,-0.12075199327617883
1665946245115828200,2.142828125,-5.2174435563862325,0.08226619527637959,-0.4617288921020925
1665946245125909200,2.1529091796875,-2.7626374976634978,-0.9978981081604957,-1.4604337866008281
1665946245135991300,2.1629912109375,1.3271934831514953,-2.074486891198158,-1.4643915843158959
1665946245146073300,2.1730732421875,4.539418330354988,-3.8527082780867814,-0.6205645323179662
1665946245156155400,2.1831552734375,5.2180140497505665,-5.680557911497354,-0.20764730965793132
1665946245166236400,2.193236328125,3.5897827333211896,-7.307852239337563,-0.703927729050815
1665946245176318500,2.203318359375,2.0483461955085396,-12.648794165098666,0.55023960779123
1665946245186400500,2.213400390625,1.3228034314990043,-13.147943125665186,2.9875065757572647
1665946245196482300,2.223482421875,1.162291236373037,-6.761136056432128,3.689935298421979
1665946245206564400,2.233564453125,-1.2982359764754772,-2.4944518404126166,1.9416575066372752
1665946245216645400,2.243645263671875,-4.668869762915373,0.7832365358263254,0.8833212963879108
1665946245226727200,2.25372705078125,-7.263521514701843,2.8051901067107914,1.5306450946852563
1665946245236809200,2.263809326171875,-8.337616142836213,3.168857999163866,2.3677590589106083
1665946245246891300,2.273891357421875,-12.547943096339703,2.654789701884985,-1.5192577314913271
1665946245256972300,2.28397216796875,-18.40333735026121,3.496466151720285,-7.272169516059756
1665946245267054300,2.294054443359375,-15.051638565915821,0.4527613034009933,-1.8098066117197273
1665946245277136400,2.304136474609375,-8.944629850316048,-3.05652165979445,2.6404893738538027
1665946245287218400,2.314218505859375,-3.450516301450133,-3.1413983298301695,1.7364470687374471
1665946245297299500,2.324299560546875,-0.6684253307759761,-3.321286110424995,0.5813109648160636
1665946245307381500,2.334381591796875,0.9327262555480003,-1.302749654507637,0.459364062666893
1665946245317463300,2.34446337890625,0.7838555445075035,0.3583803074389696,-0.02158171721100807
1665946245327545300,2.35454541015625,-0.2569149244402535,1.5525100127518177,-0.7691282232359051
1665946245337627400,2.36462744140625,-0.8557669345080852,2.2427695741951466,-1.5389622566536068
1665946245347708400,2.37470849609375,-0.4202338292837143,1.4930442628264426,-2.0655432678945362
1665946245357790500,2.38479052734375,-0.41100305960178374,0.8395558044195175,-2.1205480928882956
1665946245367872500,2.39487255859375,-0.43801147803664203,0.16890227620005607,-2.3649200360924003
1665946245377954600,2.40495458984375,-1.0589245315313338,-0.14517477913200855,-3.459845270809531
1665946245388035300,2.415035400390625,-2.0046751038253308,-0.08438216451704501,-4.104513001640141
1665946245398117400,2.425117431640625,-2.0994494830191135,-0.5443307490736246,-3.8053047218769787
1665946245408199400,2.435199462890625,-2.4084967274904248,-0.9769254627585411,-3.356416460517049
1665946245418281200,2.44528125,-1.9037012854695319,-1.3482529300540684,-3.373085271245241
1665946245428363300,2.45536328125,-0.874171190726757,-1.855391720330715,-3.5484266405820843
1665946245438444300,2.4654443359375,0.3395696989091113,-2.4890841758996247,-3.925225817286968
1665946245448526300,2.4755263671875,1.072377814279124,-2.730504575821757,-4.223030367732048
1665946245458608400,2.4856083984375,1.1027753636956215,-2.214719537752867,-4.439358411973714
1665946245468690400,2.4956904296875,0.6041618251800537,-1.1427566609501838,-4.655645539683103
1665946245478771500,2.505771484375,0.1434942056339234,0.03110182522833347,-4.597412546423078
1665946245488853500,2.515853515625,0.21447043367624283,0.8769237043052911,-4.241436085255444
1665946245498935600,2.525935546875,0.8816133234262465,1.1581436151742934,-3.8734021065473554
1665946245509017300,2.536017333984375,1.6335633251070976,1.1235796667933464,-3.7853102738574145
1665946245519099400,2.546099365234375,2.11726687926054,0.6934902139276266,-3.516853398449719
1665946245529180400,2.556180419921875,2.1737106510162354,0.37733985945284365,-2.68517899492979
1665946245539262200,2.56626220703125,1.7976012101411818,0.6852455326735973,-1.7291414218991994
1665946245549344300,2.57634423828125,1.1827917342185974,1.2336749492377042,-0.9813006091028451
1665946245559426300,2.58642626953125,0.45525136665105814,1.7369710926115511,-0.23789690197110175
1665946245569507300,2.59650732421875,-0.4697498476028442,2.4253122532129288,0.6900117241621017
1665946245579589400,2.60658935546875,-6.861181069505214,18.135329387664793,3.4563767179161307
1665946245589671400,2.61667138671875,-2.3239770541988314,24.70260349868536,5.185726814129948
1665946245599753500,2.62675341796875,2.074398190001398,7.210887072101235,1.4690128143757581
1665946245609835300,2.636835205078125,4.533682709312439,-6.041598378056287,2.259421726049483
1665946245619916500,2.64691650390625,5.4944543251276015,-7.02536508501172,5.548514416617155
1665946245629998300,2.656998291015625,5.664211172330379,-1.8011831602811812,7.781388035219908
1665946245640080400,2.667080322265625,5.266968927055597,0.3757388539969921,8.283818501675128
1665946245650162400,2.677162353515625,2.0852258734859523,0.41162849802374835,5.508931178769469
1665946245660243200,2.6872431640625,0.8332254323542118,-0.5007715933322906,4.001259255653619
1665946245670325200,2.6973251953125,1.0706991404771804,-3.297680778431892,4.9665878041207785
1665946245680407300,2.7074072265625,0.1914308458071202,-3.6347663689076897,4.601263961154222
1665946245690489300,2.7174892578125,-1.1069734729725866,-3.1256799516946074,3.0707255417138337
1665946245700571400,2.7275712890625,-2.055671131569147,-3.770988026255369,1.2354624171763657
1665946245710652400,2.73765234375,-1.8177274678468702,-5.15649955060184,0.6888885653510689
1665946245720734500,2.747734375,-0.97159345408082,-5.471380908054113,0.5644941239193082
1665946245730816300,2.757816162109375,-0.4940542677760124,-5.329483543157577,0.4649694814585149
1665946245740898300,2.767898193359375,-5.823297572436928,-3.6697102565169333,0.7564448288820683
1665946245750979300,2.777979248046875,-6.762657566910982,-2.7673884915828704,2.416703853213042
1665946245761061400,2.788061279296875,-4.786848492085934,-3.2198592876046894,2.453067106100917
1665946245771143400,2.798143310546875,-3.285277223932743,-2.8512463399648666,0.8851604945138096
1665946245781225500,2.8082255859375,-1.6250713910937309,-3.107106768649816,0.060047787597030396
1665946245791306200,2.81830615234375,-0.8752139777779578,-3.579541325291991,-0.1855995823703706
1665946245801388300,2.82838818359375,-0.7144646128952503,-3.1876936325371266,0.3271890503615141
1665946245811469800,2.8384697265625,0.5632675047338008,-3.366994553154707,-0.10223404754996299
1665946245821551900,2.8485517578125,-0.9041782064557075,-1.9850117874562738,-1.470967747835815
1665946245831634000,2.858634033203125,-0.6394027229744941,-1.1690221520632504,-0.7966958829887211
1665946245841715000,2.86871484375,3.40596696562767,-4.369870449727774,-0.8450970719337463
1665946245851797000,2.878796875,-3.3072458946347236,-2.2456711408555505,-4.890377840143442
1665946245861878800,2.888878662109375,-5.832572181260585,4.434326263025403,-5.15655391113758
1665946245871960800,2.8989609375,-4.634042779684067,5.533802585175633,-2.9203087702751156
1665946245882043000,2.90904296875,0.3977203841805458,5.2606432311654086,-1.84390323484987
1665946245892124000,2.9191240234375,1.9461796602368353,4.542012146240473,-2.687415375679731
1665946245902206000,2.9292060546875,-0.6193814600132406,5.049509832957387,-3.616920331093669
1665946245912288000,2.9392880859375,-2.878528314644098,6.3661214240789405,-2.099157514335215
1665946245922370000,2.9493701171875,-4.614960770334303,8.414414135834575,-0.5293658196538686
1665946245932450800,2.959450927734375,-5.502509036767482,8.921538897585869,0.17028876212239263
1665946245942532900,2.969532958984375,-5.981967792958021,8.217123385018109,-0.14977408962100744
1665946245952615000,2.979614990234375,-5.797632969826459,5.686196209645271,-0.05457300944775342
1665946245962696700,2.98969677734375,-5.533312171310186,3.117863140463829,0.36182431041300295
1665946245972778800,2.99977880859375,-4.62284684740901,2.7578876727879047,0.6082496790155768
1665946245982859800,3.00985986328125,-5.09786323723793,4.319043348810077,0.4263151950240135
1665946245992941800,3.01994189453125,-4.320696961236,5.03758617092967,0.42527123892903324
1665946246003024000,3.03002392578125,-1.2799135533213615,5.1720688756555315,0.7661223194181919
1665946246013106000,3.04010595703125,1.6654934178531169,4.7920928224802015,0.615129209396243
1665946246023187000,3.05018701171875,3.1638989154517647,3.7555280067950485,0.24876111807376144
1665946246033269000,3.06026904296875,3.2652234469413757,1.9114660742521286,-0.14175678738206623
1665946246043351000,3.07035107421875,4.647437098786234,0.02091068608164787,-1.0399439367294312
1665946246053432800,3.080432861328125,1.870411010286212,-3.773201026129722,-0.8480626437410712
1665946246063515000,3.090514892578125,-1.0469125336330383,-5.035653157040477,1.348333155683428
1665946246073595600,3.100595703125,-3.1487890246033667,-5.357879616558551,3.7870465961307285
1665946246083677700,3.110677734375,-2.693653977808356,-5.159648370021581,4.758897532103956
1665946246093759700,3.120759765625,-2.110019830741733,-4.918838795474171,5.33014989811182
1665946246103841800,3.130841796875,0.143469801845029,-5.5310792976915835,7.129691136404872
1665946246113922800,3.1409228515625,0.40881351366825397,-7.711043748405575,8.437699734354018
1665946246124004900,3.1510048828125,-1.844257747375965,-4.672142500975728,6.274989785301685
1665946246134087000,3.1610869140625,-2.306798101991415,1.1820213343679904,0.22108780598938463
1665946246144169000,3.1711689453125,1.6906863112986086,2.3008698809862134,-12.473518262213467
1665946246154250800,3.181250732421875,5.079385331261157,-6.173154381680488,3.908472835406661
1665946246164332000,3.19133203125,4.590914416575432,-0.18640636870861052,3.9801603535234924
1665946246174413800,3.201413818359375,5.7413025953173635,0.749126176431775,-1.2979349477022886
1665946246184495900,3.211495849609375,6.029446167969703,-0.03685118253529072,0.8112842341810464
1665946246194578000,3.221577880859375,4.787475099551678,3.215993844348192,0.18813246184885501
1665946246204660000,3.231659912109375,3.669242639005184,4.556981751835346,0.8946627746134996
1665946246214740700,3.24174072265625,4.6420261796534055,14.209708433580397,3.4469162311315533
1665946246224822800,3.25182275390625,15.19860490463972,13.777908085143565,5.794904421645403
1665946246234904800,3.26190478515625,16.504764659851787,-8.079591229593753,-0.24606033468246458
1665946246244987000,3.27198681640625,7.737997806304692,-15.661735626363754,-8.830444083687663
1665946246255068700,3.282068603515625,-1.2305600320875645,-12.786830178391932,-5.993496902710199
1665946246265150000,3.29214990234375,-11.403593028718232,-4.669762912362813,-2.515200906191766
1665946246275231700,3.302231689453125,-15.45694487518072,1.5909627852648496,-0.6097597913175821
1665946246285313800,3.312313720703125,-12.489411412394047,2.7587621175348755,1.62052264174819
1665946246295395800,3.322395751953125,-5.328923571187257,1.8510750261753797,1.5270675284594297
1665946246305476900,3.332476806640625,1.1037537072084844,2.023517166939378,0.546202388164401
1665946246315559000,3.342558837890625,5.5776598470807075,2.4797534529745575,-0.11813830364644527
1665946246325641000,3.352640869140625,6.869796922159194,3.064569941693544,-0.9526508532017469
1665946246335723000,3.362722900390625,5.083709624201059,2.9590479585140943,-1.9129928454279899
1665946246345805000,3.37280517578125,1.6776327684581278,3.5039573842585083,-3.0322137324899434
1665946246355886000,3.382885986328125,-1.483517871198803,3.380636709538102,-3.892799465456605
1665946246365968000,3.3929677734375,-3.389478772163391,1.3875976829707621,-4.543820364706218
1665946246376049700,3.403049560546875,-4.250270256835222,0.20794775390923023,-5.840837320780754
1665946246386131700,3.413131591796875,-4.053615758095681,-0.9859247617721557,-6.526870788961649
1665946246396213800,3.4232138671875,-4.4060757355749605,-2.0103940659940243,-6.171643977117538
1665946246406294800,3.433294677734375,-5.377338350266218,-3.702226624718308,-6.508657086879015
1665946246416376800,3.443376953125,-4.80313502549827,-5.382394464612007,-6.0526551941215985
1665946246426459000,3.453458984375,-1.9186033787861465,-6.507794917091727,-4.978037418895959
1665946246436541000,3.463541015625,3.109069300894439,-13.580483478814363,-2.536071844784915
1665946246446623000,3.473623046875,0.3485667694330215,-7.129765370684861,3.7099940438494086
1665946246456704000,3.4837041015625,-2.9132588517636058,13.858733433961868,5.962056639307737
1665946246466785800,3.493785888671875,4.078798422408104,28.631121343255042,10.20643140836358
1665946246476867800,3.503867919921875,8.77196325314641,8.894265106213092,14.395878655445575
1665946246486950000,3.513949951171875,7.0501289393901825,-7.077395131978392,11.909884846776723
1665946246497031000,3.524031005859375,-4.659344978722929,-4.9404965005308386,9.808739081233739
1665946246507113000,3.534113037109375,-9.88370868976116,-1.4176456152319907,7.763410479980707
1665946246517194800,3.54419482421875,-4.999730195266008,-1.4926906270831823,6.770809309184551
1665946246527276800,3.55427685546875,-0.6177803084269166,1.1146025796115397,6.453122246661782
1665946246537358800,3.56435888671875,-0.07256722356081008,7.421796013903617,3.582450782997906
1665946246547439900,3.57443994140625,1.6558645887643098,8.372001227518915,-1.1267279016911982
1665946246557522000,3.58452197265625,0.9375298564374447,7.835447542187571,-2.8014652409687635
1665946246567603700,3.594603759765625,-0.2969856352776289,8.177557098305225,-2.705120251457393
1665946246577685800,3.604685791015625,0.38360651863217354,6.612537148070335,-3.4683731529191135
1665946246587767800,3.614767822265625,2.2798665481850504,3.1831191642284393,-3.360364613620937
1665946246597848800,3.624848876953125,-0.7852297554701566,0.9034621671408414,-3.432763787138462
1665946246607931000,3.634930908203125,-2.840873999032378,-2.7253730581521984,-5.910995145112276
1665946246618013000,3.645012939453125,-2.4682939013272525,-5.14974715373218,-5.528340228116512
1665946246628095000,3.655094970703125,-2.7424793835148216,-5.67390897500217,-3.5995886725425716
1665946246638177000,3.665177001953125,-2.810817591203749,-5.742657517057657,-2.8277415457367896
1665946246648258000,3.675258056640625,-1.402072198525071,-6.036713528624176,-1.734586973953992
1665946246658340000,3.685340087890625,-0.6633662938207388,-3.4576422078073024,0.6734503193311393
1665946246668422000,3.695421875,-1.3762839695349336,-1.1488497171282768,1.6521869231648743
1665946246678503700,3.705503662109375,-1.4237632213294504,-2.5302397776305674,2.1005073215089736
1665946246688585700,3.715585693359375,-0.8832666435912251,-6.25414807280302,-0.7609146677725016
1665946246698666800,3.725666748046875,0.41390404174029827,-5.976943242794275,-0.4747838962472975
1665946246708748800,3.735748779296875,0.18457360032349823,-3.5463691235303876,-1.7686407808557152
1665946246718830800,3.745830810546875,0.7027069550842047,-3.7580642472743984,-4.641659099906683
1665946246728913000,3.755912841796875,0.3259662305682897,-3.757338271087408,-5.635277923312783
1665946246738995000,3.765994873046875,1.4999132718130945,-1.8085908061891793,-5.234589921498299
1665946246749076000,3.776075927734375,2.3491569420322773,-2.0165069959163664,-3.065679948762059
1665946246759158000,3.786157958984375,-0.6250450387328863,0.19714169773459433,3.0364374876648186
1665946246769239800,3.79623974609375,-0.7433435013771057,1.7030781753599642,4.932742817664146
1665946246779321900,3.80632177734375,0.1727025452658534,0.3146516403496265,0.33048882255926726
1665946246789404000,3.81640380859375,1.8373811396047472,1.6654080776572227,-1.945747698560357
1665946246799485000,3.82648486328125,1.4511813896089791,2.7347020275115965,-2.353939500133693
1665946246809567200,3.836567138671875,0.9179904587090015,2.582852592921257,-2.2141958061397076
1665946246819649300,3.846649169921875,-0.07077537170797586,3.0193337926506993,-0.9371072471112012
1665946246829731300,3.8567314453125,-2.427903000358492,2.893493244063854,-0.9420423654258251
1665946246839813000,3.866813232421875,-4.05644513630271,2.249987835010886,-1.5447716735847294
1665946246849894400,3.876894287109375,-5.022760357719659,2.1562170799016953,-1.4102581353291868
1665946246859976200,3.88697607421875,-4.4511739374518395,2.639610252931714,-1.1327391248047352
1665946246870058200,3.897058349609375,-3.40464360806942,2.8607389754533767,-0.9106555857762694
1665946246880140300,3.907140380859375,-2.660134570044279,2.724365926936269,-0.9377044823519884
1665946246890222300,3.917222412109375,-1.806051058578491,2.568015673795342,-1.422123783559352
1665946246900304400,3.927304443359375,-0.5173416198611259,2.082374429577589,-1.681880050639063
1665946246910385200,3.93738525390625,0.41664954105615615,1.2461270190536975,-0.9135315796039998
1665946246920467200,3.94746728515625,-1.4986241087853909,0.0018920973569154739,-0.5082853299632668
1665946246930549200,3.95754931640625,-3.025353199070692,-1.4871832618385552,0.2669099382266402
1665946246940631000,3.967631103515625,-3.473423129785061,-2.803760366168618,0.6095343119986355
1665946246950713000,3.977713134765625,-2.593434777212143,-2.9788837088406086,0.12537526916265487
1665946246960794000,3.987794189453125,-1.570898486879468,-2.624610252198577,-0.07193374796286225
1665946246970876200,3.997876220703125,-0.7282214816994965,-2.116511676979065,-0.4053504406675696
1665946246980958200,4.007958251953125,0.36854813877530396,-1.9595558591604232,-0.5733220849540084
1665946246991040300,4.018040283203125,1.840962212961912,-1.5650538525044917,-1.0431918326094747
1665946247001122300,4.028122314453125,6.42990503720343,4.469066152495145,-2.4986218195736405
1665946247011203300,4.038203369140625,9.779320094525813,-10.182234540218115,-12.065091775101422
1665946247021285400,4.048285400390625,6.763751207366585,-17.261370962905882,-6.815079243543743
1665946247031367400,4.058367431640625,-0.36750586318075656,-5.281520599499345,-1.1414613604426382
1665946247041449200,4.06844921875,-6.8180433540463445,-3.1970968361765144,10.129059414869547
1665946247051531300,4.07853125,-3.6727120686814185,-0.4648708433896303,8.951129149207473
1665946247061613300,4.08861328125,3.2107755251780152,-2.4422639725357294,3.0735604728788135
1665946247071694000,4.098694091796875,2.160856137879193,-3.20128259742856,2.855534977069497
1665946247081776000,4.108776123046875,-1.181212940594554,-6.033267772084474,5.7911763410329815
1665946247091858200,4.118858154296875,1.0362804457858203,1.2285732421845197,-1.6051691514022648
1665946247101940200,4.128940185546875,1.1601312818601728,2.2934020293235777,0.9151284203413873
1665946247112022300,4.139022216796875,2.888543804962933,5.368723666656017,-2.05093314326182
1665946247122103300,4.149103271484375,4.478104322214424,6.261027310922741,-2.800931280222535
1665946247132185300,4.159185302734375,3.133217945984006,4.302193920817971,0.1617938324343413
1665946247142267100,4.16926708984375,0.8608969908729195,3.976951912871003,0.642955739280954
1665946247152349200,4.17934912109375,-0.08232552424818276,4.185276683399081,0.2575229550696909
1665946247162431200,4.18943115234375,-0.015118658676743507,3.916135332858562,-0.06615914661679416
1665946247172512300,4.19951220703125,0.1715197652220726,3.413061307802796,-0.38823125582337376
1665946247182594300,4.20959423828125,0.41898207565695045,3.230473620599508,-0.6168311179433018
1665946247192676400,4.21967626953125,0.5416929479159415,2.2249960170954464,-0.6052940440803766
1665946247202758400,4.22975830078125,0.6347869728073477,1.4265297634333372,-0.5489987408846616
1665946247212840200,4.239840087890625,0.3592800327576697,1.0003115990430116,-0.3633630642876029
1665946247222922200,4.249922119140625,-0.031039281386137006,1.1651812587261199,0.1752213962189853
1665946247233003300,4.260003173828125,0.1295110537931323,1.0578063411563634,0.8706655206933617
1665946247243085000,4.2700849609375,0.04689458377435803,0.1681821452319622,0.8361714957434684
1665946247253167000,4.2801669921875,-0.12482815667390823,-0.028373277047276494,0.39346360351890325
1665946247263249200,4.290249267578125,-0.5436472968541085,0.4619821362107992,0.49711146338954565
1665946247273331200,4.300331298828125,-1.4674509718865156,0.37909108703434463,0.05026917477399111
1665946247283412200,4.310412109375,-1.8166038706444203,0.32609774799346924,0.025073650979995726
1665946247293494300,4.320494384765625,-2.1955114178054034,0.38404023387432096,0.034948782980069516
1665946247303576300,4.330576416015625,-2.7632971306160092,0.5777817677766084,-0.3225428319908678
1665946247313658000,4.340658203125,-2.60036866812855,0.7083306401848792,-0.6922314460381865
1665946247323740200,4.350740234375,-2.877393173134327,0.3957546370655298,-1.1033877234403042
1665946247333822200,4.360822265625,-3.1196874332815407,0.036194764453172684,-1.4324921789690852
1665946247343903200,4.3709033203125,-3.312495193465054,-0.38554888487160205,-2.037403945733607
1665946247353985300,4.3809853515625,-3.547375085702538,-0.8882078993856907,-2.4352568702526387
1665946247364067300,4.3910673828125,-3.472097726400196,-1.125225095912814,-2.6738302101805806
1665946247374149400,4.4011494140625,-3.061643825113773,-1.016239820536971,-2.485200612464547
1665946247384231400,4.4112314453125,-2.38643847880885,-0.5005395381420851,-2.1910613065287468
1665946247394313200,4.421313232421875,-1.902871264386177,0.17972645255327224,-1.714315316428244
1665946247404394200,4.431394287109375,-1.4645375686578452,0.6911766762882471,-1.270392714651674
1665946247414476000,4.44147607421875,-1.3937993140898643,-0.006486439409852027,-0.5930617544949054
1665946247424558000,4.45155810546875,-1.257519350683689,-2.0619787072807547,-0.27084260150045153
1665946247434639000,4.46163916015625,-1.900834205600619,-5.386691869544983,-0.9820286311164498
1665946247444721200,4.47172119140625,-2.0452222182691098,-8.566146666046977,-2.8405957666128874
1665946247454803200,4.48180322265625,-1.5303320832133291,-9.044435793936252,-3.5745927629739045
1665946247464885200,4.49188525390625,-0.7486369316101074,-5.608347830811143,-2.102379252860695
1665946247474967300,4.50196728515625,0.9260092222526669,-0.1324275257617235,0.7437700562261045
1665946247485048300,4.51204833984375,3.8756995698347687,4.844582303652167,3.2067125135228034
1665946247495130400,4.52213037109375,4.9295998434633015,6.5066247042685745,6.409442679411172
1665946247505212400,4.53221240234375,3.3685973121762274,5.9637546753972766,9.02375540947914
1665946247515294200,4.542294189453125,1.1800672776907681,5.165183207795024,10.513829132062195
1665946247525376300,4.552376220703125,-0.9125957600586115,4.48927424326539,10.764791267311573
1665946247535458300,4.562458251953125,-2.4327967637494203,2.5647137096405026,8.580357562229036
1665946247545539000,4.5725390625,-2.4973086911484597,0.1175134497463703,5.728465910097956
1665946247555621000,4.58262109375,-0.27727205002605915,-1.3465256678700446,2.875921931537986
1665946247565703200,4.592703125,2.7452997016325593,-1.6277227823853493,0.6512286967813968
1665946247575785200,4.60278515625,5.638115192565322,-1.746941867005825,-0.6746599873818456
1665946247585867300,4.6128671875,8.018321060594916,-2.1471517299145457,-2.0036248641200363
1665946247595949000,4.622948974609375,7.9152838799685235,-2.7491613454967734,-3.243479817166924
1665946247606030300,4.6330302734375,5.909098956102133,-3.2800445839762684,-3.634991994357109
1665946247616112000,4.643112060546875,3.867082840397954,-3.0581530603885647,-2.7367294416859744
1665946247626194200,4.653194091796875,1.9830577307790516,-2.0092057329922914,-1.5689512983344494
1665946247636276200,4.663276123046875,0.15927585826404392,-0.30402561691701413,-0.2079934927470982
1665946247646358300,4.673358154296875,-0.8947586362034082,0.33942835420966144,1.2362144045874475
1665946247656440300,4.6834404296875,-1.0970634157896042,1.580699165403843,1.860987786772102
1665946247666521300,4.693521240234375,-1.0123568416237831,2.872135398736596,1.8212091724827884
1665946247676603400,4.703603271484375,-0.7787690350234509,2.4652111328810453,2.0278046350002286
1665946247686685400,4.713685546875,-0.060030991725856436,1.1703349882274865,2.0276114505156873
1665946247696767200,4.723767333984375,1.090045645982027,-0.44684652639925476,1.654168598501384
1665946247706849300,4.733849365234375,1.705849978160858,-1.0979741008937358,0.8165165818765759
1665946247716931300,4.743931396484375,1.6308908910274504,-0.6348205828160047,0.10569339422360062
1665946247727012000,4.75401220703125,1.3370168118990957,0.3094359515279531,-0.4245412441540509
1665946247737094100,4.76409423828125,1.1259902350664137,-0.46086862201094625,-0.48850554760769005
1665946247747176200,4.77417626953125,0.8505365595739335,-0.4999117616325617,-0.2884231202460825
1665946247757258200,4.78425830078125,0.5973265723325312,0.7112579258084297,-0.5254096293739974
1665946247767340300,4.79434033203125,0.43300088333301245,1.442772457703948,-0.5475738957133144
1665946247777421300,4.80442138671875,0.2595101833641529,1.604386330461502,-0.3174262196294963
1665946247787503400,4.81450341796875,0.5975707563519478,1.633411349415779,-0.1803729337632656
1665946247797585200,4.824585205078125,0.7273696871757507,1.4886398903876543,-0.17640980228595435
1665946247807667200,4.834667236328125,0.9245278976537287,1.0211363604068755,-0.2780792747557163
1665946247817749500,4.84474951171875,0.6554420766927301,-0.2117126594007015,-0.21742778564449397
1665946247827831600,4.85483154296875,0.2191607834495604,-0.4973357736647129,-0.5949161867225542
1665946247837912600,4.86491259765625,-0.17094371889978646,-0.26434008773863316,-0.7935758512720466
1665946247847994600,4.87499462890625,-0.49658086364418264,-0.1706827298760414,-0.6211692202128469
1665946247858076700,4.88507666015625,-0.7109983980894088,0.021601590955257415,-0.4282582919158041
1665946247868158500,4.895158447265625,-0.7979708713606,0.17092063028514384,-0.30013772436669095
1665946247878240500,4.905240478515625,-0.9645929276689886,0.14335399344563482,-0.17921121477382257
1665946247888322600,4.915322509765625,-0.9472063240602612,0.030375849041342735,-0.11604292053608223
1665946247898403600,4.925403564453125,-0.9058832568079233,-0.011584639331698418,-0.15750229098657145
1665946247908485400,4.9354853515625,-0.8410191549703478,0.1770090102881193,-0.3516504511946812
1665946247918567400,4.9455673828125,-0.7952467070937156,0.17607845143973827,-0.4369587541133165
1665946247928649500,4.9556494140625,-0.8459941669039428,0.08062427328824996,-0.375951254638657
1665946247938731500,4.9657314453125,-0.824002553717792,-0.01321837801337242,-0.32864553278014064
1665946247948813300,4.975813232421875,-0.6905918621376156,0.04022328931689262,-0.34708391046412285
1665946247958894600,4.98589453125,-0.46571810786873097,0.005334931287169456,-0.5034512608703225
1665946247968976400,4.995976318359375,-0.28135756577402354,-0.13779752836227416,-0.7143150483567268
1665946247979058400,5.006058349609375,-0.32834728048592804,-0.28898353060781956,-1.346789579503238
1665946247989140500,5.016140380859375,-0.4130974015325308,-0.39771453896164893,-1.792788403031975
1665946247999222500,5.026222412109375,-0.49930824278146024,-0.3935480669319629,-1.9700578178219497
1665946248009304600,5.0363046875,-0.7133578206971287,-0.4533557621628046,-2.4745149677991867
1665946248019385600,5.046385498046875,-0.7476891293659805,-0.6561702448368072,-2.0666683264017105
1665946248029467600,5.056467529296875,-0.9117273066610098,-0.8454904551655054,-1.623360787783563
1665946248039549700,5.0665498046875,-1.0885650520354508,-0.9084691816478967,-1.2315823608726262
1665946248049631500,5.076631591796875,-1.2882462051197885,-0.8572709093302487,-0.8936393498498946
1665946248059713500,5.086713623046875,-1.5415978658542036,-0.7649842552989721,-0.6684652974601835
1665946248069795600,5.096795654296875,-1.8273986747726796,-0.6482926433295011,-0.5928988190181553
1665946248079876400,5.10687646484375,-2.067344033706188,-0.454757445654273,-0.7512120427951217
1665946248089958400,5.11695849609375,-2.072257816971838,-0.2879384054690599,-1.3096683478549123
1665946248100040400,5.12704052734375,-1.366400288902223,-1.0415917039364575,-1.7362274346373974
1665946248110122500,5.13712255859375,-0.4685758353874087,-2.557096220374107,-1.6833502693220972
1665946248120204500,5.14720458984375,-0.772617818917334,-3.4078701689004895,-1.323060474999994
1665946248130286300,5.157286376953125,-1.4029603795364498,-3.544720187279582,-0.8468497608199715
1665946248140367600,5.16736767578125,-1.0431450708582997,-3.2467122232168912,-0.6818659001726657
1665946248150449400,5.177449462890625,0.35727030037045476,-2.9702281086981297,-0.7312622376348823
1665946248160531500,5.187531494140625,1.7533856363177298,-3.3833810398101805,-0.5425015608850866
1665946248170613500,5.197613525390625,1.6997022691860795,-4.024685139426588,-1.0393420983787625
1665946248180695600,5.207695556640625,0.20448548462614416,-3.9185874021857976,-1.222693463430926
1665946248190777600,5.217777587890625,-1.1774532958000898,-2.8496739760816094,-0.3625658860279247
1665946248200859600,5.227859619140625,-1.6630279045224188,-1.867924454167485,0.07660210510008036
1665946248210940700,5.237940673828125,-1.411250799628347,-1.4753063615620134,0.5252111111272126
1665946248221022700,5.248022705078125,-0.8959234421990812,-1.1926292376220227,1.2226860838420688
1665946248231104500,5.2581044921875,-0.2490799747645855,-1.0325497348248958,1.9886077661216257
1665946248241186600,5.2681865234375,0.21855638781562448,-1.1977139935404062,3.116870914556086
1665946248251268600,5.2782685546875,0.15039171006269753,-1.3927186792463064,4.587390041841567
1665946248261350700,5.2883505859375,-0.009350085212662815,-1.727263937589526,6.030100832486152
1665946248271431400,5.298431396484375,-0.033953707528114316,-2.1267308731764554,7.004677101770043
1665946248281513500,5.308513427734375,-0.06566986526250838,-2.6654788536816834,7.129644959175586
1665946248291595500,5.318595458984375,0.13215221595168114,-2.7658260645717383,6.188151459804177
1665946248301677600,5.328677490234375,0.8819412402063608,-2.190218718224764,4.698853397768736
1665946248311759400,5.33875927734375,1.7370979338616133,-1.2665455377042292,3.349703226613998
1665946248321841400,5.34884130859375,2.3111165497124193,-0.2886234651237726,2.1094911306925117
1665946248331923500,5.35892333984375,2.539762808257341,0.3579273029744625,0.8010705909416079
1665946248342004500,5.36900439453125,2.885912579676509,0.8046674463897943,-0.3999769309356808
1665946248352086500,5.37908642578125,3.2508103061854836,1.4366186112493275,-0.7892344610668718
1665946248362168600,5.38916845703125,3.221305979281664,2.055972744864225,-0.6789169141739606
1665946248372250600,5.399250732421875,3.3827041634619235,2.184041490894556,-0.5245400069326162
1665946248382332700,5.409332763671875,3.38215062123239,2.2785352995812893,-0.013763734653161372
1665946248392414500,5.41941455078125,3.277238294383883,2.6706483652740713,0.8348882509998977
1665946248402495700,5.429495849609375,3.2998388332486153,2.9979660104513166,1.789956248345971
1665946248412577500,5.43957763671875,3.2791181167811154,3.2152398111104965,2.520212304612994
1665946248422659600,5.44965966796875,2.827837991848588,3.4950428409188983,3.0519211802616715
1665946248432741600,5.45974169921875,2.417502456244826,3.737501936239004,3.329059959296882
1665946248442823700,5.46982373046875,2.2206645637623965,3.8405741881787776,3.3361817740008233
1665946248452905500,5.479905517578125,2.037590846607834,3.887033741536736,3.1441713016748425
1665946248462987500,5.489987548828125,2.015211695408821,3.8102269807100293,2.733562794348597
1665946248473068500,5.500068603515625,1.9696336010605096,3.6800101167351005,2.155360901463777
1665946248483150600,5.510150634765625,1.774909485861659,3.575263209581375,1.4100781025871634
1665946248493232400,5.520232421875,1.5169091225385665,3.591130640798807,0.5821490230754017
1665946248503314400,5.530314453125,1.2008914545327425,3.636394846892357,-0.11942702828273176
1665946248513396500,5.540396484375,0.7588672337234019,3.5793408342838284,-0.5607024765513837
1665946248523478500,5.550478515625,0.432825015309453,3.426189669445157,-0.6144087861672043
1665946248533560600,5.560560546875,0.4868237320005893,3.174368871539831,-0.33999168718084694
1665946248543641600,5.5706416015625,0.6165455059349536,2.8407424816071987,0.1298060912169516
1665946248553723600,5.5807236328125,0.37121816170215605,2.34656897136569,0.6796786923266946
1665946248563805700,5.5908056640625,-0.1669859211847186,1.7092057183295488,0.9292242387764156
1665946248573887500,5.600887451171875,-0.9988251598775386,1.0042565372765064,0.9398889867842197
1665946248583969500,5.610969482421875,-2.0789847871392966,0.19445289704203605,0.8064819484658539
1665946248594051600,5.621051513671875,-3.2028426863521338,-0.45915655739605427,0.6328117272116244
1665946248604132400,5.63113232421875,-4.430321995820105,-0.6605296090900897,0.6533401359774172
1665946248614214400,5.64121435546875,-5.6417398128032685,-0.7181886018544436,0.6796973970271647
1665946248624296400,5.65129638671875,-5.086699453666806,-0.8678197758734225,0.6498069934152066
1665946248634378500,5.66137841796875,-1.2609686143547296,-0.7814818011134862,1.130148816050589
1665946248644460500,5.67146044921875,3.6344916436195374,-0.4539660030156374,1.9531113591961562
1665946248654542300,5.681542236328125,5.533909552681446,-1.7336112607896328,1.883096596597135
1665946248664624400,5.691624267578125,2.6410698040902614,-5.373674567061663,0.4516016119718551
1665946248674705400,5.701705322265625,-3.1525898781910535,-10.34268930606842,-1.3792220688134431
1665946248684787500,5.711787353515625,-5.164665905922651,-14.435130469381809,-0.8340930820342153
1665946248694869500,5.721869384765625,-1.2011059740662573,-13.562682449185848,1.1210106930881738
1665946248704951600,5.73195166015625,2.56795459125787,-11.840974392157792,1.4795292399540543
1665946248715033600,5.74203369140625,1.5133248343110084,-12.341456062632798,0.34800913555026053
1665946248725115600,5.75211572265625,-1.4039321471780537,-14.909801991295813,0.5267752186387777
1665946248735197400,5.762197509765625,-1.769241377097368,-14.814536613714694,0.4674593985781073
1665946248745278700,5.77227880859375,-0.4930477210819721,-16.057061808884143,2.0704723948597907
1665946248755360500,5.782360595703125,0.8847973602898418,-15.472060611248015,2.131351518714428
1665946248765442600,5.792442626953125,1.0843805328924208,-15.96025563160181,2.6149951593741774
1665946248775524600,5.802524658203125,-0.25392558816485106,-14.056051657307147,2.180141853107512
1665946248785606700,5.812606689453125,-1.6603917107999324,-10.490592048859595,2.2214377400919796
1665946248795688700,5.822688720703125,-1.5174077197104692,-6.458455424383282,2.4015844638839363
1665946248805770800,5.832770751953125,-0.5796697734802961,-2.456615153971314,1.9287007021695375
1665946248815851800,5.842851806640625,-0.13761282857828772,1.0851596275061368,1.584022464607656
1665946248825933600,5.85293359375,-0.8053332168221473,3.827258779531717,1.7268223313018678
1665946248836015600,5.863015625,-1.8160814542055128,6.947358885267376,1.706594366787374
1665946248846097700,5.87309765625,-1.974821232831478,9.42669206700325,1.3807187371119856
1665946248856179700,5.8831796875,-0.5423544440319761,10.863704061484336,0.35375710461772975
1665946248866261800,5.89326171875,1.982070473307371,11.108372065025568,-1.0463993964791298
1665946248876343800,5.90334375,4.10264107028842,11.381246756875514,-2.3091490490317343
1665946248886425900,5.91342578125,3.595830196791887,11.730182944142818,-3.829530523855984
1665946248896506600,5.923506591796875,2.1138059251517056,11.78056990007758,-5.011864285174012
1665946248906588700,5.933588623046875,0.09592939444780349,11.603315975117683,-4.786855506348609
1665946248916670500,5.94367041015625,-1.3862415921866893,11.65171672567129,-4.518869171062112
1665946248926752500,5.95375244140625,-1.848826954987645,10.998269183796644,-3.7642791762664913
1665946248936834600,5.96383447265625,-1.6252677904486654,10.048992775464058,-2.9606606544077394
1665946248946916600,5.97391650390625,-0.620461218073964,9.590478023102879,-2.4151693371221423
1665946248956998700,5.98399853515625,0.39906069287359713,9.728354461920262,-1.8468775744855404
1665946248967079700,5.99407958984375,1.4475462479770183,9.707820792457461,-1.3669909482717513
1665946248977161700,6.00416162109375,2.328467497485876,9.88553824327588,-0.4300868225172162
1665946248987243800,6.014243896484375,2.53258487945199,10.152370147830247,0.8580246503069996
1665946248997325600,6.02432568359375,2.1266110461890695,10.279043055588007,1.6032488508641718
1665946249007407600,6.03440771484375,1.6378256587266922,10.358011962884664,1.7396899961814283
1665946249017489700,6.04448974609375,1.0830173547804356,10.131115762877464,1.286867025721073
1665946249027571700,6.05457177734375,0.4062491430729627,9.523547344124317,0.41342414926886556
1665946249037652700,6.06465283203125,0.047096682217717165,8.93121682651341,-0.33863369670063254
1665946249047734800,6.07473486328125,0.1962456256777048,8.726723596972226,-0.7721905334159731
1665946249057816800,6.08481689453125,0.5761176339566707,8.805735758888721,-0.7590875984758139
1665946249067898600,6.094898681640625,0.650336716377735,8.879991081666946,-0.4496516469478607
1665946249077980700,6.104980712890625,0.16956928874142466,9.083284287768603,-0.042521665919758374
1665946249088062700,6.115062744140625,-0.4479261383295059,9.431823000150919,0.27167233032286164
1665946249098144800,6.125144775390625,-0.6360381419122219,9.482497540855407,0.17672580943256616
1665946249108226600,6.1352265625,-0.02774966525621712,9.063278441572189,-0.10457385214176028
1665946249118307600,6.1453076171875,0.7273020287670194,8.258434469571709,-0.016228720544185487
1665946249128389600,6.1553896484375,0.28645313534736633,7.130470304083824,0.38249358895421026
1665946249138471700,6.1654716796875,-1.0139210222005843,4.993148478788137,0.30598785690069197
1665946249148553700,6.1755537109375,-1.2793467132188379,0.9762678756326436,0.24160631441567093
1665946249158635500,6.185635498046875,-3.065981562057137,-6.06440349958241,1.0224322454363106
1665946249168717600,6.195717529296875,-6.260763691550493,-21.26371158405542,0.8946168896451592
1665946249178799600,6.205799560546875,-0.44057811365425587,-34.51208726080656,0.10844780749827623
1665946249188881700,6.215881591796875,2.0848067712910474,-43.39393712208271,0.7530722837090492
1665946289507613200,46.53461328125,-0.22369798848778008,-0.055229135268926616,0.0971007763147354
1665946289517695200,46.5446953125,-0.11079027897119521,-0.2525648942708969,-0.25359540636241434
1665946289527776300,46.5547763671875,0.17463409785032272,-0.5869312889158725,-0.6561345890015363
1665946289537858300,46.5648583984375,0.5773334394872188,-0.7859761899232864,-0.5765905121654272
1665946289547939300,46.574939208984375,1.0369032538592815,-0.7122071893572807,0.07181202127933502
1665946289558021400,46.585021484375,2.5642776563107965,0.26852994064390656,2.3215531880527736
1665946289568103400,46.595103515625,2.989458878868818,1.4738234295278787,2.819565253543854
1665946289578184200,46.60518408203125,2.1944208460897205,1.6698732403725385,0.9252829538047314
1665946289588266200,46.61526635742187,2.763063614121079,1.200014087176323,0.08879238217473029
1665946289598348000,46.62534814453125,2.9876749180614945,0.2102928557306528,-0.06578150894343852
1665946289608429300,46.63542919921875,2.086343333208561,0.09571078326106071,-0.6201613583445549
1665946289618511000,46.64551098632813,1.978010384261608,-0.14078151260912417,-0.8249287286520004
1665946289628593200,46.65559326171875,1.4904337880671024,-0.058229486128687856,-0.5527177614077925
1665946289638674200,46.665674072265624,1.0624310783475637,0.033765491479635236,-0.18752163647413253
1665946289648756200,46.675756103515624,0.745709645986557,0.1349117437928915,0.30821693112701176
1665946289658837200,46.68583715820313,0.3692588443279266,0.16109598636329173,0.804179370611906
1665946289668919300,46.69591918945312,-0.2386222936362028,0.029334815555810925,1.1453940237164497
1665946289679001300,46.70600146484375,-0.7396884860008954,-0.1900970399200916,1.2968182186320423
1665946289689082000,46.71608203125,-0.9669020813941955,-0.2603717686295509,1.3962687729433179
1665946289699164200,46.7261640625,-0.8984697656810283,-0.1319523094654083,1.3535045669719576
1665946289709246200,46.73624609375,-0.7913619746148586,0.08833119440376758,1.2732087949857116
1665946289719327200,46.7463271484375,-0.6056026716381311,0.38870354951024055,1.333845049995184
1665946289729409300,46.7564091796875,-0.5619254424750805,1.0049328291028738,1.840523821544647
1665946289739491300,46.7664912109375,-0.6269172623455525,1.8874264424949883,2.7261180313006044
1665946289749572400,46.776572265625,-0.8166495606064796,2.6331372575253247,3.445302073933184
1665946289759654400,46.786654296875,-0.8019061649829149,3.01483765027523,4.048595007324218
1665946289769735400,46.7967353515625,0.17112170581519603,3.3900188703894614,3.5108576651662586
1665946289779817200,46.806817138671875,-1.2794412596344946,3.347856721964478,1.6226768971726298
1665946289789899300,46.816899169921875,-2.965924858546257,2.485072017648816,-0.13451105403751135
1665946289799980300,46.82698022460937,-3.612417758977413,2.2042554268836976,-0.9140067228350788
1665946289810062000,46.83706201171875,-4.029183035367727,1.6705027704477309,-1.0510475876111536
1665946289820144000,46.84714404296875,-3.129997814893722,1.1706646585732698,-0.4036076886534691
1665946289830225200,46.85722509765625,-2.4969343048781156,1.6111948414325714,0.562479788422212
1665946289840307200,46.86730712890625,-2.4112480720251797,1.5732698921859263,0.9577993950713425
1665946289850389200,46.87738916015625,-1.9035346967309712,1.7420821520149707,1.016962727984041
1665946289860470300,46.88747021484375,-1.700215771666169,2.399432546547055,0.7551676485531031
1665946289870552300,46.89755224609375,-1.5286860695719717,2.5994518455445763,0.6995357777021824
1665946289880633300,46.90763330078125,-1.2423545147776602,2.1442051550686356,0.9331533218536525
1665946289890715100,46.91771508789063,-1.0632125841140747,1.6513672773450612,1.0453837896957994
1665946289900797200,46.92779711914063,-1.3144827623993158,1.4149135599195957,0.8776376977935433
1665946289910878200,46.937878173828125,-1.8344781116396187,1.562918009519577,0.7084912375740706
1665946289920960300,46.947960205078125,-1.196011281275749,2.3396581690639255,1.024354810996726
1665946289931042300,46.958042236328126,0.1422656136870384,2.7945196596145627,1.5684166069358587
1665946289941123300,46.96812329101562,0.782914464265108,2.751881125849485,1.834323651730269
1665946289951205400,46.97820532226562,0.22119243540763853,2.605959327742457,1.5565855916276574
1665946289961287200,46.988287109375,-0.25565467697978017,2.221573056909442,1.0883983171664178
1665946289971368200,46.9983681640625,-0.07360708800256252,1.6917296828716992,0.8842759667642414
1665946289981450000,47.008449951171876,0.12031389411985874,1.377133572101593,0.9152192404299974
1665946289991532000,47.01853198242188,0.3050876931905746,1.6298878514647483,0.8128628816746175
1665946290001613000,47.02861303710937,0.25384382816553114,2.265754143941402,0.5191355175405741
1665946290011695000,47.038695068359374,0.09108487702608108,2.666279940931499,0.11240080117406323
1665946290021776100,47.04877612304688,-0.1586667133897543,2.9133459455251693,-0.27189576381519437
1665946290031858200,47.05885815429688,-0.5196668479382992,2.8980148131415246,-0.5916420969553291
1665946290041940200,47.06894018554687,-0.9390735787481069,2.6666715705975887,-0.8302589837640524
1665946290052021000,47.07902099609375,-1.282355685776472,2.0828876397967337,-0.6142407361239195
1665946290062103000,47.08910302734375,-1.7638082461327313,1.3405784499034286,-0.09822494890592061
1665946290072185000,47.09918505859375,-2.3473013772934674,0.9172554224327206,0.2757999316468835
1665946290082266000,47.10926611328125,-2.87749897159636,1.1213149367317556,-0.9093222913458943
1665946290092348200,47.11934814453125,-3.0947043831944465,0.9122574680149554,-1.650752068056166
1665946290102430200,47.12943017578125,-2.8535516942977903,0.46638212473541496,-0.1464941911675036
1665946290112511200,47.13951123046875,-2.3257716825306414,1.0477747764855623,0.3361316507518291
1665946290122593300,47.14959326171875,-1.5736562611550091,1.3040183592692016,0.25140739479884505
1665946290132675000,47.15967504882813,-0.5066694191992283,1.2245000013962388,-0.07913681120947003
1665946290142756000,47.169756103515624,-0.04620294824838638,1.0850859777480364,-0.311735752902925
1665946290152838100,47.179838134765625,-0.5727835210978984,0.6164508133888245,-0.4167139845944941
1665946290162920000,47.189919921875,-1.33364689707458,0.159489720210433,-0.5690592398777604
1665946290173001000,47.2000009765625,-3.062136577066779,0.10976093592345713,-3.207304341936111
1665946290183083000,47.2100830078125,-1.8226216696292161,-1.0068100211516022,-1.5578594109557569
1665946290193164000,47.2201640625,-1.0633043540507554,-1.6092475067570804,0.9936705535933374
1665946290203246000,47.23024609375,-0.4724737196087837,-0.5633259569227695,0.21086305683404205
1665946290213328100,47.240328125,0.04886778354346752,0.15437076976150274,-1.0410359697498381
1665946290223409200,47.2504091796875,0.0728629916369915,-0.41894758886545896,-1.8136537886671722
1665946290233491200,47.2604912109375,0.42821138403415676,-1.141715627464652,-1.707640368708968
1665946290243573200,47.2705732421875,0.16748831774890421,-1.0339899967610835,-1.1741432944692671
1665946290253654000,47.28065405273438,-0.18866671485602854,-0.42886955568194385,-0.6113380004197358
1665946290263736000,47.29073608398438,0.012768880680203437,-0.24942250459194182,0.10188231150284409
1665946290273818000,47.30081811523438,0.3227256412118673,-0.3022960166454315,0.29002602539807554
1665946290283899100,47.310899169921875,0.5703560016900301,-0.24931904421746728,0.020810440577566622
1665946290293981200,47.320981201171875,0.6357528952300548,-0.14327917464375495,-0.25232743225321175
1665946290304063000,47.33106298828125,0.396533804744482,-0.0279459915459156,-0.46225656923800706
1665946290314144300,47.34114428710937,0.13110475272536276,0.10369359870851039,-0.5334735472336412
1665946290324226000,47.35122607421875,0.1692354536771774,0.10040390951335429,-0.25696400601267816
1665946290334308000,47.36130810546875,0.20581015735864638,-0.03748714235126972,0.22949396141543982
1665946290344389000,47.37138916015625,0.1683656851053238,-0.11058335822224616,0.37332784733250735
1665946290354471200,47.38147119140625,0.23792320545613765,-0.08149696446955204,0.34399186273291704
1665946290364553200,47.39155322265625,0.20043606310486792,0.0007446808874607086,0.3740599609993398
1665946290374634000,47.40163403320312,0.14265490526556968,0.13322656718492507,0.4874404025942087
1665946290384716000,47.411716064453124,0.06042436582446098,0.18581307899057864,0.579660713391006
1665946290394798000,47.421798095703124,-0.022190789020061493,0.21912907313704488,0.3758597038976848
1665946290404879000,47.43187915039063,0.13184183482825756,0.3131137632578611,0.3057589800482616
1665946290414961200,47.44196118164062,0.07623860554993152,0.3271218303442001,0.18829273044448344
1665946290425043200,47.45204321289062,-0.1920458359003067,0.148005034121871,0.16314619689136742
1665946290435124200,47.462124267578126,-0.340236747983098,-0.03583294540345668,0.24428368039876222
1665946290445206300,47.47220629882813,-0.5111497794836759,0.01846855362653732,0.10470745192617177
1665946290455288000,47.4822880859375,-0.08842588694989681,-0.04987666832506656,0.07739696353850886
1665946290465369300,47.492369384765624,-0.20408464874029159,0.059656304061412806,-0.22764584933072327
1665946290475451100,47.502451171875,-0.33255846844017506,0.09398995081782341,-0.2576470198407769
1665946290485533000,47.51253295898437,-0.4358130912095308,0.027233459362387656,0.08337357199639081
1665946290495614000,47.52261401367188,-0.5557914697647094,0.22321020497083663,0.3529505374751985
1665946290505696000,47.53269604492188,-0.4837316112041473,0.47963469727933405,0.6608266923405229
1665946290515778000,47.54277807617188,-0.2056745482802391,0.5509177262485027,0.7920582863159478
1665946290525859000,47.552859130859375,0.13527414736449717,0.47915948098301886,0.6536725828021764
1665946290535941000,47.562941162109375,0.3920809169888496,0.6526069993972778,0.6961668857909739
1665946290546022100,47.57302221679687,0.3851484873771667,0.6832996593028307,0.5209678840668872
1665946290556104200,47.58310424804687,0.21113047559857367,0.40644028173089025,0.2360455750159919
1665946290566186200,47.59318627929687,-0.07018062068521976,0.29016835647821426,0.040661534603685136
1665946290576268300,47.60326831054687,-0.3185129919528961,0.3918500308424234,-0.1648148607559502
1665946290586349000,47.61334912109375,-0.063203182888031,0.4479138633698225,-0.25372005565539
1665946290596431000,47.62343115234375,0.2577706462204456,0.39388708962798114,-0.36575332042500375
1665946290606513000,47.63351293945313,0.2811661348551512,0.24489538255631924,-0.526114416642487
1665946290616594200,47.64359423828125,-0.005757540613412856,0.15015139850080012,-0.4433139683589339
1665946290626676000,47.653676025390624,-0.6988876890569925,0.2548433605968952,0.08073409033827483
1665946290636758000,47.663758056640624,-0.8945815260708332,0.45252574107944965,0.4578491280592978
1665946290646839000,47.67383911132813,-0.6204618025958538,0.5616103851765394,0.2634498609006405
1665946290656921000,47.68392114257812,0.1077846674144268,0.2994078939884901,-0.12402078581377864
1665946290667003100,47.69400317382812,3.1926299198955297,-0.43310441677272316,-0.5998503917217254
1665946290677084200,47.704084228515626,2.2963363292098045,-1.2972913891017437,-1.9536651936866343
1665946290687166200,47.714166259765626,-1.6777122634351254,-1.2316864057689905,-2.2371451584421096
1665946290697248300,47.72424829101563,-1.7168296373367309,-0.5133931744962931,-1.2375792631998657
1665946290707329000,47.7343291015625,-1.3512462666511535,-0.18485504761338234,-0.11907836097553372
1665946290717411000,47.7444111328125,-0.3954103536725044,-0.26922844430208204,-0.18773966313898563
1665946290727493000,47.7544931640625,-0.0390916549384594,-0.35856969253122806,0.16062749206870794
1665946290737574100,47.76457421875,0.005673369461297989,-0.20203239238560197,0.2978860912486911
1665946290747656200,47.77465625,0.5175514632195234,0.06935469125509262,-0.24618439945355056
1665946290757738200,47.78473828125,0.6112532447457313,0.2735837169021368,-0.43435397844240065
1665946290767819300,47.7948193359375,-0.23370704906582832,0.2068424230158329,-0.004332768507301807
1665946290777901000,47.804901123046875,-1.234460546657443,-0.08345978897511959,0.4544090706080198
1665946290787983000,47.814983154296876,-1.2123112586915492,-0.21231763955652713,0.473342319136858
1665946290798064000,47.82506420898437,-0.4959843590557575,-0.05423778614401817,0.05288944027498364
1665946290808146000,47.83514599609375,0.1307546241134405,0.10799217268526554,-0.2611655493557453
1665946290818228000,47.84522802734375,0.36486440876126286,0.18192542390227318,-0.17971432372406124
1665946290828309000,47.85530908203125,0.4648971468746662,0.14855857635140418,0.04057560988590121
1665946290838391000,47.86539111328125,0.5450912120521069,0.008493103057146073,0.11947700490429997
1665946290848473000,47.87547314453125,0.5653682764053345,-0.023008535143733022,0.10066635984182357
1665946290858555100,47.88555517578125,0.5684294175416231,0.13264964407980442,0.12805142956934867
1665946290868636200,47.89563623046875,0.5488666389375925,-0.047778234741091725,0.03797185712829232
1665946290878718200,47.90571826171875,0.3768576288938522,-0.1956441526532173,0.03690466628819704
1665946290888800300,47.91580029296875,0.3259808436155319,-0.10295768564939499,0.03492620582208037
1665946290898881300,47.92588134765625,0.42308278897404666,-0.08481178810596465,0.06184899180009961
1665946290908963300,47.93596337890625,0.3503466385871172,-0.022255086427927017,0.0379521295145154
1665946290919045000,47.94604516601562,0.09099076900184154,0.10093757799863814,0.034747049862891434
1665946290929126100,47.956126220703126,-0.2752788303822279,0.1502741480976343,0.14505254099182785
1665946290939208000,47.9662080078125,-0.5445382543444633,0.1354652860224247,0.22669044830203056
1665946290949290000,47.9762900390625,-0.7822270665228367,0.11723112567365168,0.21519728664606808
1665946290959371000,47.98637109375,-0.9869511822104453,0.19695289716422557,0.1510539002984762
1665946290969453800,47.996453857421876,-0.9760194538295268,0.2305436165988445,0.21831191153526305
1665946290979536000,48.00653588867188,-0.9147159670829772,0.17164251481890677,0.373091700489074
1665946290989618000,48.01661791992188,-0.6289537366092205,0.13867489571869374,0.3760797763891518
1665946290999698700,48.02669873046875,-0.23506956959068773,0.14953180529773236,0.32396380470469593
1665946291009780700,48.03678076171875,-0.0014864391654729843,0.22640870875120161,0.18290595937222243
1665946291019862500,48.04686254882812,0.12593933278620242,0.2650830150604248,0.07994140559062361
1665946291029943800,48.05694384765625,0.16677403199970722,0.20249124206900596,0.10488690014630556
1665946291040025600,48.06702563476563,0.16656652672886849,0.1450771639764309,0.10861395784541963
1665946291050107600,48.07710766601563,0.15960545554459094,0.15130816732048988,0.09971782694533467
1665946291060188700,48.087188720703125,0.1691881074041128,0.11321604481339453,0.12759279908165336
1665946291070270700,48.097270751953126,0.15138006351292133,0.08797346700727939,0.16727281183470039
1665946291080352800,48.107352783203126,0.059008653807640074,0.07796820582151412,0.18821151843443512
1665946291090434800,48.11743481445313,-0.04206570231318474,0.06882686798870563,0.17261764346137642
1665946291100515800,48.12751586914062,-0.04331716367900371,-0.012432196071743964,0.23318974719345567
1665946291110598000,48.137597900390624,-0.14400631987452506,-0.017243980267643927,0.3627731355704367
1665946291120680000,48.147679931640624,-0.32574352772831916,0.05870470242500305,0.4798043547578156
1665946291130760700,48.1577607421875,-0.3821475519955158,0.10304127227962016,0.4444758517451584
1665946291140842800,48.1678427734375,-0.399536493691802,0.08392682196497916,0.3054932052515447
1665946291150924800,48.1779248046875,-0.3074678663253784,0.024139585000276565,0.24921353801637885
1665946291161005800,48.188005859375,-0.16958792037665843,0.012031214055418968,0.24975480528622865
1665946291171087600,48.198087646484375,-0.01333995856642723,0.00919160671532154,0.24597236413806675
1665946291181169700,48.208169677734375,0.05904489416480064,0.0166962832570076,0.24549890140742062
1665946291191251700,48.218251708984376,0.03134206372499466,-0.00017126491367816925,0.2466100775197148
1665946291201332700,48.22833276367187,-0.04586626363992691,-0.04320727356374263,0.2734998380109668
1665946291211414800,48.23841479492187,-0.06991641679108142,-0.07138239769041538,0.2760012994378805
1665946291221496800,48.24849682617187,-0.04708499177992344,-0.09138064510226249,0.25941607533991334
1665946291231577600,48.25857763671875,-0.1694406208604574,-0.09258943637013435,0.22944208509773015
1665946291241659600,48.26865966796875,-0.31326515442728997,-0.059469841578602786,0.19332915370911358
1665946291251741700,48.27874169921875,-0.3526601762264967,-0.05059504572749138,0.1459340730667114
1665946291261823700,48.28882373046875,-0.3054039195328951,-0.060363575547933576,0.05027034381777048
1665946291271904800,48.29890478515625,-0.2602723999083042,-0.10622633205652236,0.03825958802849054
1665946291281986800,48.30898681640625,-0.3437491400182247,-0.12206570622324943,0.08894844951927662
1665946291292068600,48.319068603515625,-0.43065643909871576,-0.07094342175126075,0.08032499808073043
1665946291302150000,48.32914990234375,-0.4726818094015121,-0.029231939703226087,0.1505529559058603
1665946291312231700,48.33923168945312,-0.4318056091338396,-0.01063596030473709,0.2561591193705797
1665946291322313700,48.34931372070312,-0.20934476122558116,0.019649287843704222,0.21377543714940547
1665946291332395800,48.35939575195312,-0.09269172770082951,0.031005963638424873,0.17680530440956352
1665946291342476800,48.36947680664063,-0.08054945448637008,0.0019300912797451017,0.08659311856478452
1665946291352558800,48.37955883789063,-0.0887619870364666,-0.0448994644343853,0.021808511704206467
1665946291362641000,48.38964086914063,-0.16693243743181227,0.015831190860271453,0.21809359260946512
1665946291372721700,48.3997216796875,-0.36216099502146243,0.008061725902557373,0.43788317548185585
1665946291382803700,48.4098037109375,-0.2139437794536352,0.1041986256211996,0.346820218026638
1665946291392885800,48.4198857421875,0.011276596295833587,0.11386427958905697,0.1517214242964983
1665946291402967800,48.4299677734375,0.06210311269164085,0.09136194040179252,0.1004383963048458
1665946291413048800,48.440048828125,-0.0031283611536026,0.07396598444283008,0.14496128251180052
1665946291423130600,48.45013061523437,-0.032871757510304446,0.09009469694495201,0.2604517019979656
