time,seconds_elapsed,z,y,x
1665946243008738800,0.03573876953125,0.05886482447385788,-0.17516890168190002,0.04649951681494713
1665946243018819800,0.04581982421875,0.05229933559894562,-0.23068276047706604,0.17322656512260437
1665946243028902000,0.05590185546875,0.042292382568120956,-0.2838832139968872,0.2507207691669464
1665946243038984000,0.06598388671875,0.034284792840480804,-0.36207735538482666,0.26539719104766846
1665946243049065700,0.076065673828125,0.011916101910173893,-0.47159212827682495,0.23402035236358643
1665946243059146800,0.086146728515625,0.07996173202991486,-0.24054960906505585,0.2580311596393585
1665946243069228500,0.096228515625,0.026102272793650627,-0.2175552248954773,0.17226698994636536
1665946243079310600,0.106310546875,0.0285212229937315,-0.16229036450386047,0.0945945605635643
1665946243089392600,0.116392578125,0.0617106556892395,-0.21322189271450043,0.029756907373666763
1665946243099473700,0.1264736328125,0.10139202326536179,-0.2470666766166687,0.013267413713037968
1665946243109555700,0.1365556640625,0.12300999462604523,-0.29449227452278137,0.037910256534814835
1665946243119637800,0.1466376953125,0.15062297880649567,-0.3196794092655182,0.11650174111127853
1665946243129719800,0.1567197265625,0.16908949613571167,-0.34246858954429626,0.21771535277366638
1665946243139800800,0.16680078125,0.16257166862487793,-0.40359213948249817,0.3135662376880646
1665946243149883000,0.1768828125,0.13819696009159088,-0.4702123999595642,0.3952072858810425
1665946243159964700,0.186964599609375,0.10759270936250687,-0.40939006209373474,0.41899755597114563
1665946243170046700,0.197046630859375,0.06995251029729843,-0.28379446268081665,0.3443015515804291
1665946243180128800,0.207128662109375,0.03089326247572899,-0.20917002856731415,0.1908305138349533
1665946243190209500,0.21720947265625,0.06464138627052307,-0.14537446200847626,0.08050389587879181
1665946243200291600,0.22729150390625,0.12529808282852173,-0.08382110297679901,0.03290042281150818
1665946243210373600,0.23737353515625,0.1350763887166977,-0.04599734768271446,0.056009307503700256
1665946243220455700,0.24745556640625,0.07919608056545258,-0.03545202687382698,0.08777469396591187
1665946243230536700,0.25753662109375,0.08233531564474106,0.026053715497255325,0.1009395644068718
1665946243240618800,0.26761865234375,0.055772412568330765,0.04461328685283661,0.03436772897839546
1665946243250700800,0.27770068359375,0.055473826825618744,0.07023979723453522,-0.0632229819893837
1665946243260782600,0.287782470703125,0.07568082213401794,0.0530909039080143,-0.16210322082042694
1665946243270864000,0.29786376953125,0.1047382727265358,-0.040517114102840424,-0.2295161336660385
1665946243280945700,0.307945556640625,0.19866955280303955,-0.2828567922115326,-0.3654326796531677
1665946243291027700,0.31802783203125,0.3107896149158478,-0.3506142199039459,-0.49286311864852905
1665946243301109800,0.32810986328125,0.3983471691608429,-0.15119966864585876,-0.5996772050857544
1665946243311190800,0.338190673828125,0.3777892291545868,-0.0004029710835311562,-0.6692912578582764
1665946243321272800,0.34827294921875,0.334541380405426,0.03603999316692352,-0.6540846228599548
1665946243331355000,0.35835498046875,0.3216138184070587,0.0006959582096897066,-0.5533694624900818
1665946243341436700,0.368436767578125,0.33847111463546753,-0.02244584634900093,-0.43547552824020386
1665946243351518700,0.378518798828125,0.37084007263183594,-0.018437234684824944,-0.3776286542415619
1665946243361599700,0.388599853515625,0.39787355065345764,-0.012060296721756458,-0.36917179822921753
1665946243371681800,0.398681884765625,0.4068543612957001,0.042437441647052765,-0.2913776934146881
1665946243381763600,0.408763671875,0.38987937569618225,0.19999244809150696,-0.10947312414646149
1665946243391845600,0.418845703125,0.35639089345932007,0.5229336619377136,0.03972328081727028
1665946243401926700,0.4289267578125,0.4093414545059204,0.6798694729804993,0.1325128674507141
1665946243412008700,0.4390087890625,0.6436669826507568,0.7695274949073792,0.20178930461406708
1665946243422090800,0.4490908203125,0.8707414269447327,0.7636810541152954,0.20724478363990784
1665946243432172800,0.4591728515625,0.8559906482696533,0.6046485900878906,0.18056215345859528
1665946243442253800,0.46925390625,0.6394128203392029,0.33159708976745605,0.09310181438922882
1665946243452335900,0.4793359375,0.3512927293777466,0.09134164452552795,-0.045589689165353775
1665946243462418000,0.48941796875,0.09568014740943909,-0.03633855655789375,-0.21990635991096497
1665946243472500000,0.4995,-0.10035371035337448,-0.1602911651134491,-0.3594454228878021
1665946243482580700,0.509580810546875,-0.227214977145195,-0.3596450090408325,-0.49431532621383667
1665946243492662800,0.519662841796875,-0.2865678668022156,-0.4875248670578003,-0.7028807401657104
1665946243502744600,0.52974462890625,-0.46192583441734314,0.41187870502471924,-0.4798441529273987
1665946243512826600,0.53982666015625,-0.7035077810287476,0.9655330777168274,0.13277271389961243
1665946243522908700,0.54990869140625,-0.8376530408859253,0.4145132899284363,0.2857966125011444
1665946243532989700,0.55998974609375,-0.9788106679916382,0.46120044589042664,0.7603447437286377
1665946243543071700,0.57007177734375,-1.0483473539352417,0.32200419902801514,1.033636212348938
1665946243553153800,0.58015380859375,-1.0592530965805054,-0.04539358988404274,1.1296882629394531
1665946243563235800,0.59023583984375,-1.0605663061141968,-0.5345577001571655,1.1018158197402954
1665946243573316900,0.60031689453125,-1.1100842952728271,-1.0084882974624634,0.9689726233482361
1665946243583399000,0.61039892578125,-1.1236469745635986,-1.3261077404022217,0.8244476318359375
1665946243593480700,0.620480712890625,-1.0537012815475464,-1.4705111980438232,0.7086623311042786
1665946243603562800,0.630562744140625,-0.7893012166023254,-1.1315019130706787,0.608966052532196
1665946243613643500,0.6406435546875,0.0007859664037823677,-0.46451088786125183,0.3552476465702057
1665946243623725600,0.6507255859375,0.4334265887737274,-0.2875070869922638,-0.005359277129173279
1665946243633807600,0.6608076171875,0.24065396189689636,-0.45977091789245605,-0.28429916501045227
1665946243643889700,0.6708896484375,0.11127626895904541,-0.5344902276992798,-0.3890564441680908
1665946243653970700,0.680970703125,0.08486519008874893,-0.4525281488895416,-0.3848453164100647
1665946243664052700,0.691052734375,0.10500854253768921,-0.4832594096660614,-0.3527643382549286
1665946243674134800,0.701134765625,0.13622857630252838,-0.6518588662147522,-0.2911178767681122
1665946243684216800,0.711216796875,0.15192312002182007,-0.8583358526229858,-0.18350781500339508
1665946243694298600,0.721298583984375,0.14868681132793427,-1.0242840051651,-0.06262753903865814
1665946243704380000,0.7313798828125,0.16686156392097473,-1.0813480615615845,0.0396767258644104
1665946243714461700,0.741461669921875,0.23638013005256653,-1.0608255863189697,0.09950239211320877
1665946243724543700,0.751543701171875,0.29428309202194214,-0.9674484729766846,0.07499918341636658
1665946243734625800,0.761625732421875,0.29291799664497375,-0.7720251083374023,0.006266225595027208
1665946243744706600,0.77170654296875,0.22804951667785645,-0.4609604477882385,-0.06560982763767242
1665946243754788600,0.78178857421875,0.16876208782196045,-0.07347135990858078,-0.12641818821430206
1665946243764870700,0.79187060546875,0.12890148162841797,0.21768377721309662,-0.16607265174388885
1665946243774952700,0.80195263671875,0.10163381695747375,0.4148457944393158,-0.16882583498954773
1665946243785033700,0.81203369140625,0.08179140090942383,0.5187010765075684,-0.16272346675395966
1665946243795115800,0.82211572265625,0.0704241469502449,0.5141283869743347,-0.12493590265512466
1665946243805197800,0.83219775390625,0.06444055587053299,0.4697481095790863,-0.0683053731918335
1665946243815279400,0.842279296875,0.05549553781747818,0.3990258276462555,-0.0072806766256690025
1665946243825361400,0.852361328125,0.07025744020938873,0.28102171421051025,0.0549190454185009
1665946243835442400,0.8624423828125,0.09784793108701706,0.07324044406414032,0.1384514421224594
1665946243845524500,0.8725244140625,0.12856163084506989,-0.0706767812371254,0.25390854477882385
1665946243855606500,0.8826064453125,0.13796022534370422,-0.13203498721122742,0.3295905888080597
1665946243865688600,0.8926884765625,0.14952659606933594,-0.135649174451828,0.3690967261791229
1665946243875769300,0.902769287109375,0.1775331348180771,0.004559071268886328,0.3563576638698578
1665946243885851400,0.912851318359375,0.2025279700756073,0.19366854429244995,0.26764827966690063
1665946243895933400,0.922933349609375,0.24087822437286377,0.40716028213500977,0.15633775293827057
1665946243906015500,0.933015380859375,0.2916727066040039,0.582565188407898,0.07978332042694092
1665946243916096500,0.943096435546875,0.3382633924484253,0.6797457933425903,0.04621914029121399
1665946243926178600,0.953178466796875,0.3525347411632538,0.6597651839256287,0.0813387781381607
1665946243936260400,0.96326025390625,0.3283212184906006,0.5911588668823242,0.17926199734210968
1665946243946342400,0.97334228515625,0.2934476435184479,0.5595146417617798,0.26521605253219604
1665946243956424400,0.983424560546875,0.2834489643573761,0.5486002564430237,0.28565508127212524
1665946243966505500,0.99350537109375,0.2869925796985626,0.568819522857666,0.26181739568710327
1665946243976587500,1.00358740234375,0.2882058322429657,0.6361076235771179,0.22460508346557617
1665946243986669600,1.013669677734375,0.32228922843933105,0.6989603042602539,0.1728619933128357
1665946243996751600,1.023751708984375,0.3743498623371124,0.7188215255737305,0.11241386830806732
1665946244006832600,1.03383251953125,0.42136290669441223,0.7239766120910645,0.06972925364971161
1665946244016914700,1.043914794921875,0.49237626791000366,0.7897534966468811,0.036410585045814514
1665946244026996500,1.05399658203125,0.5422684550285339,0.7768523693084717,0.005445212125778198
1665946244037078300,1.064078369140625,0.5722405910491943,0.7124168276786804,0.03837692737579346
1665946244047159600,1.07415966796875,0.5925130844116211,0.6766311526298523,0.0794181078672409
1665946244057241300,1.084241455078125,0.6228435039520264,0.668775200843811,0.08175703138113022
1665946244067323400,1.094323486328125,0.6466601490974426,0.6530318856239319,0.07600247114896774
1665946244077405400,1.104405517578125,0.6414933204650879,0.671062171459198,0.09295870363712311
1665946244087487500,1.114487548828125,0.6518898010253906,0.7201186418533325,0.10346859693527222
1665946244097568500,1.124568603515625,0.6973212957382202,0.7739121317863464,0.06992579996585846
1665946244107650600,1.134650634765625,0.7488065958023071,0.8242592215538025,0.046143509447574615
1665946244117732600,1.144732666015625,0.7878005504608154,0.8571619987487793,0.07635260373353958
1665946244127814700,1.154814697265625,0.8303703665733337,0.8060386180877686,0.15261462330818176
1665946244137895700,1.164895751953125,0.8791422247886658,0.7125954031944275,0.2367255836725235
1665946244147977500,1.1749775390625,0.9289350509643555,0.6331155300140381,0.2995338439941406
1665946244158059500,1.1850595703125,0.9735553860664368,0.5818238258361816,0.33961835503578186
1665946244168141600,1.1951416015625,1.0188575983047485,0.5647870898246765,0.35116875171661377
1665946244178222300,1.205222412109375,1.079850435256958,0.5850387215614319,0.32235461473464966
1665946244188304400,1.215304443359375,1.104074478149414,0.6214587688446045,0.2831616699695587
1665946244198386400,1.225386474609375,1.112654447555542,0.6584555506706238,0.25889357924461365
1665946244208468500,1.235468505859375,1.119691014289856,0.6648708581924438,0.2349565476179123
1665946244218550500,1.245550537109375,1.1381350755691528,0.6681948304176331,0.20592692494392395
1665946244228631600,1.255631591796875,1.1366522312164307,0.677474856376648,0.1872917264699936
1665946244238713600,1.265713623046875,1.1241731643676758,0.6746771931648254,0.19338932633399963
1665946244248795400,1.27579541015625,1.1121675968170166,0.6559095978736877,0.19909727573394775
1665946244258877400,1.28587744140625,1.1186593770980835,0.612436830997467,0.19733290374279022
1665946244268958500,1.29595849609375,1.1339083909988403,0.5711000561714172,0.16948343813419342
1665946244279040500,1.30604052734375,1.1406093835830688,0.5587958097457886,0.12220539152622223
1665946244289122600,1.31612255859375,1.1559160947799683,0.6058768033981323,0.058563828468322754
1665946244299204600,1.32620458984375,1.1512491703033447,0.7043284177780151,-0.020633455365896225
1665946244309285400,1.336285400390625,1.1535605192184448,0.7907716631889343,-0.05861439183354378
1665946244319367400,1.346367431640625,1.1753884553909302,0.8293327689170837,-0.04017365351319313
1665946244329449500,1.356449462890625,1.2274473905563354,0.7846904397010803,0.029784124344587326
1665946244339531500,1.366531494140625,1.2413042783737183,0.6506153345108032,0.15383410453796387
1665946244349612500,1.376612548828125,1.2366141080856323,0.5393636226654053,0.28793519735336304
1665946244359694600,1.386694580078125,1.242335557937622,0.438789963722229,0.37156400084495544
1665946244369776400,1.3967763671875,1.2512922286987305,0.4140540063381195,0.40842294692993164
1665946244379858400,1.4068583984375,1.2102882862091064,0.47344738245010376,0.4120567739009857
1665946244389940500,1.4169404296875,1.1764028072357178,0.5305700302124023,0.3881431818008423
1665946244400021500,1.427021484375,1.1547907590866089,0.5002978444099426,0.372959166765213
1665946244410103600,1.437103515625,1.119968295097351,0.44242820143699646,0.411624014377594
1665946244420185600,1.447185546875,1.078311800956726,0.4216611385345459,0.45246702432632446
1665946244430267600,1.457267578125,1.075180172920227,0.3988008201122284,0.4662321209907532
1665946244440348400,1.467348388671875,1.0788158178329468,0.36749857664108276,0.4889126718044281
1665946244450430500,1.477430419921875,1.0937124490737915,0.2847136855125427,0.5047501921653748
1665946244460512500,1.487512451171875,1.1114137172698975,0.3042037785053253,0.5258655548095703
1665946244470594300,1.49759423828125,1.0904064178466797,0.37503907084465027,0.5157577991485596
1665946244480676400,1.50767626953125,1.0666704177856445,0.490658700466156,0.45970192551612854
1665946244490757400,1.51775732421875,1.010881781578064,0.5964794158935547,0.3583105802536011
1665946244500839400,1.52783935546875,0.928006649017334,0.7161372303962708,0.2486281543970108
1665946244510921500,1.53792138671875,0.8494974374771118,0.8640121817588806,0.1301712840795517
1665946244521003500,1.54800341796875,0.7784959077835083,1.0609279870986938,0.02727324143052101
1665946244531084500,1.55808447265625,0.739595353603363,1.2037535905838013,-0.07110259681940079
1665946244541166600,1.56816650390625,0.7561178207397461,1.0834182500839233,-0.06501024216413498
1665946244551248600,1.57824853515625,0.8071994185447693,0.7515143156051636,0.06901440024375916
1665946244561330400,1.588330322265625,0.8608232140541077,0.26150134205818176,0.27357226610183716
1665946244571411500,1.598411376953125,0.9158638715744019,-0.3070438504219055,0.5278673768043518
1665946244581493500,1.608493408203125,0.9585482478141785,-0.842747688293457,0.7441017031669617
1665946244591575300,1.6185751953125,1.0101656913757324,-1.2852191925048828,0.8989266753196716
1665946244601657300,1.6286572265625,1.096880316734314,-1.615811824798584,0.9938769340515137
1665946244611739400,1.638739501953125,1.1479765176773071,-1.9145420789718628,1.0551203489303589
1665946244621820400,1.6488203125,1.4170105457305908,-2.3168516159057617,1.037527322769165
1665946244631902500,1.65890234375,1.6395927667617798,-2.621188163757324,0.9935057759284973
1665946244641984500,1.668984619140625,1.4787259101867676,-2.952645778656006,0.7775681614875793
1665946244652066600,1.679066650390625,1.1071577072143555,-3.268352508544922,0.4130330979824066
1665946244662147600,1.689147705078125,0.7780550122261047,-3.510404586791992,0.03246106207370758
1665946244672229600,1.699229736328125,0.5716150403022766,-3.8057894706726074,-0.19977936148643494
1665946244682311400,1.7093115234375,0.49011364579200745,-4.806548118591309,0.03580133616924286
1665946244692393500,1.7193935546875,0.2057943195104599,-5.7260332107543945,0.4951915740966797
1665946244702475500,1.7294755859375,-0.29619839787483215,-6.257195472717285,0.6093429327011108
1665946244712556500,1.739556640625,-0.8844009041786194,-6.975986957550049,0.48488304018974304
1665946244722638600,1.749638671875,-1.4771047830581665,-7.630067348480225,0.3083373010158539
1665946244732720400,1.759720458984375,-1.8866348266601562,-7.817141532897949,-0.1174720749258995
1665946244742802400,1.769802490234375,-2.093536376953125,-7.850522041320801,-0.6227040886878967
1665946244752883500,1.779883544921875,-2.063399076461792,-7.713613986968994,-0.9684364199638367
1665946244762965500,1.789965576171875,-1.7808880805969238,-7.316996097564697,-1.23796546459198
1665946244773047600,1.800047607421875,-0.9055693745613098,-5.41333532333374,-1.743823528289795
1665946244783129300,1.81012939453125,0.515760600566864,-1.3750263452529907,-3.121136426925659
1665946244793210600,1.820210693359375,1.2043217420578003,-3.6440343856811523,-3.1606862545013428
1665946244803292400,1.83029248046875,1.7154182195663452,-4.931639194488525,-3.031594753265381
1665946244813374200,1.840374267578125,1.558508038520813,-5.640377998352051,-2.605536460876465
1665946244823456300,1.850456298828125,1.1388617753982544,-5.66942834854126,-2.4132821559906006
1665946244833538300,1.860538330078125,0.771806538105011,-5.91647481918335,-2.4437789916992188
1665946244843620400,1.870620361328125,0.2694380581378937,-6.618846416473389,-2.381286859512329
1665946244853702400,1.880702392578125,-0.7140076756477356,-4.350213527679443,-1.859525203704834
1665946244863783400,1.890783447265625,-2.3506600856781006,0.4564148485660553,0.34956806898117065
1665946244873865500,1.900865478515625,-2.7638726234436035,0.27526530623435974,0.4177796244621277
1665946244883947300,1.910947265625,-2.8882384300231934,0.4178341031074524,0.482634037733078
1665946244894029300,1.921029296875,-2.720040798187256,-0.3985893726348877,0.3864436149597168
1665946244904110300,1.9311103515625,-2.356276750564575,-1.1982868909835815,0.7319380044937134
1665946244914192400,1.9411923828125,-1.7389012575149536,-3.0779287815093994,1.0096029043197632
1665946244924274400,1.9512744140625,-0.9371581077575684,-5.343599796295166,1.043312430381775
1665946244934356500,1.9613564453125,-0.34444501996040344,-7.461719512939453,1.0239105224609375
1665946244944437200,1.971437255859375,-0.1256646364927292,-8.580037117004395,1.1510765552520752
1665946244954519300,1.981519287109375,-0.322055459022522,-8.75480842590332,1.4018573760986328
1665946244964601300,1.991601318359375,-0.9500982165336609,-9.060242652893066,1.543381690979004
1665946244974683400,2.001683349609375,-1.6534465551376343,-10.755105972290039,1.6508429050445557
1665946244984765200,2.01176513671875,-1.8345880508422852,-12.777542114257812,1.9414781332015991
1665946244994846500,2.021846435546875,-1.912233829498291,-13.661163330078125,2.4072134494781494
1665946245004928300,2.03192822265625,-2.2934892177581787,-12.367039680480957,2.9481165409088135
1665946245015010300,2.04201025390625,-3.1896331310272217,-9.399205207824707,3.185153007507324
1665946245025092400,2.05209228515625,-4.265426158905029,-5.9837565422058105,2.273005962371826
1665946245035173400,2.06217333984375,-4.610513687133789,-2.055473804473877,0.7460300922393799
1665946245045255400,2.07225537109375,-3.9999730587005615,1.5304834842681885,-0.5033206939697266
1665946245055337500,2.08233740234375,-2.9649364948272705,4.478095531463623,-1.4761995077133179
1665946245065419500,2.09241943359375,-2.154635190963745,6.386574745178223,-2.351364850997925
1665946245075501600,2.10250146484375,-1.8338203430175781,6.564481735229492,-2.7970566749572754
1665946245085582300,2.112582275390625,-1.8865488767623901,5.154752254486084,-3.0894415378570557
1665946245095664400,2.122664306640625,-1.9975533485412598,2.120600938796997,-3.1539618968963623
1665946245105746200,2.13274609375,-2.052401542663574,-1.4622559547424316,-3.4067375659942627
1665946245115828200,2.142828125,-2.183936595916748,-3.8400840759277344,-3.7780494689941406
1665946245125909200,2.1529091796875,-2.3817334175109863,-4.113114356994629,-3.946392297744751
1665946245135991300,2.1629912109375,-2.5487794876098633,-2.82180118560791,-3.704202175140381
1665946245146073300,2.1730732421875,-2.3482484817504883,-1.24277663230896,-3.2176103591918945
1665946245156155400,2.1831552734375,-1.850922703742981,-0.3400063216686249,-3.1090574264526367
1665946245166236400,2.193236328125,-0.43227383494377136,0.3243494927883148,-3.5295252799987793
1665946245176318500,2.203318359375,1.5642589330673218,1.0584876537322998,-4.955440044403076
1665946245186400500,2.213400390625,2.7316157817840576,2.209368944168091,-6.377580642700195
1665946245196482300,2.223482421875,3.0986549854278564,3.430603504180908,-6.7318925857543945
1665946245206564400,2.233564453125,3.013092279434204,4.073522567749023,-6.267157554626465
1665946245216645400,2.243645263671875,2.695413827896118,3.20823073387146,-5.3302435874938965
1665946245226727200,2.25372705078125,2.1037867069244385,1.8317511081695557,-4.060316562652588
1665946245236809200,2.263809326171875,1.2706912755966187,0.5707209706306458,-2.5837290287017822
1665946245246891300,2.273891357421875,-0.2542984187602997,-1.1561152935028076,-0.6042460799217224
1665946245256972300,2.28397216796875,-1.1913902759552002,-3.7153854370117188,0.8725457191467285
1665946245267054300,2.294054443359375,-0.8060320019721985,-5.1015305519104,1.4246505498886108
1665946245277136400,2.304136474609375,-0.15688306093215942,-4.464188098907471,1.775204062461853
1665946245287218400,2.314218505859375,0.2053011804819107,-3.4829020500183105,1.4400526285171509
1665946245297299500,2.324299560546875,0.3632063865661621,-2.1506667137145996,1.0456520318984985
1665946245307381500,2.334381591796875,0.37560349702835083,-1.0585260391235352,0.7230708003044128
1665946245317463300,2.34446337890625,0.26749327778816223,-0.702731728553772,0.2880689799785614
1665946245327545300,2.35454541015625,-0.050332359969615936,-0.6562339067459106,-0.2156762331724167
1665946245337627400,2.36462744140625,-0.3526458740234375,-0.15712900459766388,-0.4291301667690277
1665946245347708400,2.37470849609375,-0.6285703182220459,0.3781818151473999,-0.4417886734008789
1665946245357790500,2.38479052734375,-0.7817150950431824,0.8407755494117737,-0.25807878375053406
1665946245367872500,2.39487255859375,-0.77562016248703,1.0432429313659668,0.027279555797576904
1665946245377954600,2.40495458984375,-0.8006677031517029,0.8127942085266113,0.33452898263931274
1665946245388035300,2.415035400390625,-0.6039523482322693,0.8413359522819519,0.5361273884773254
1665946245398117400,2.425117431640625,-0.41655075550079346,0.41608718037605286,0.8017057776451111
1665946245408199400,2.435199462890625,-0.01682932674884796,-0.08065740764141083,0.9530044794082642
1665946245418281200,2.44528125,0.3911008834838867,-0.44132000207901,1.0266404151916504
1665946245428363300,2.45536328125,0.9363860487937927,-0.5116796493530273,1.0023068189620972
1665946245438444300,2.4654443359375,1.4892010688781738,-0.3406256437301636,0.8114830255508423
1665946245448526300,2.4755263671875,1.9009124040603638,-0.07373447716236115,0.5457098484039307
1665946245458608400,2.4856083984375,2.1192424297332764,0.15898370742797852,0.33825576305389404
1665946245468690400,2.4956904296875,2.114161491394043,0.33579790592193604,0.2390279620885849
1665946245478771500,2.505771484375,1.9750896692276,0.27970507740974426,0.20277515053749084
1665946245488853500,2.515853515625,1.8188673257827759,0.26396340131759644,0.28794145584106445
1665946245498935600,2.525935546875,1.6628599166870117,0.4667561948299408,0.5263835787773132
1665946245509017300,2.536017333984375,1.5472760200500488,0.8654824495315552,0.7819741368293762
1665946245519099400,2.546099365234375,1.5393142700195312,1.3273135423660278,0.9331751465797424
1665946245529180400,2.556180419921875,1.5537388324737549,1.7694509029388428,1.052668809890747
1665946245539262200,2.56626220703125,1.5173115730285645,2.051231622695923,1.123068928718567
1665946245549344300,2.57634423828125,1.3960635662078857,2.115248680114746,1.1584395170211792
1665946245559426300,2.58642626953125,1.1875308752059937,2.0429394245147705,1.249544382095337
1665946245569507300,2.59650732421875,-1.1735687255859375,-0.15196359157562256,0.39047330617904663
1665946245579589400,2.60658935546875,-5.904184341430664,0.10785067826509476,0.3312893509864807
1665946245589671400,2.61667138671875,-7.826635837554932,1.0454849004745483,0.7447810769081116
1665946245599753500,2.62675341796875,-6.927088260650635,1.2002567052841187,0.5421222448348999
1665946245609835300,2.636835205078125,-5.009402275085449,1.5699987411499023,0.38007694482803345
1665946245619916500,2.64691650390625,-3.1093266010284424,2.1750333309173584,0.3198021352291107
1665946245629998300,2.656998291015625,-2.013744831085205,3.412092924118042,0.7242259979248047
1665946245640080400,2.667080322265625,-1.4276710748672485,3.447429656982422,0.9507089257240295
1665946245650162400,2.677162353515625,-0.710299015045166,3.3882596492767334,0.969479501247406
1665946245660243200,2.6872431640625,-0.22885993123054504,3.239713668823242,0.22745276987552643
1665946245670325200,2.6973251953125,0.29779043793678284,3.0117342472076416,-0.8109786510467529
1665946245680407300,2.7074072265625,0.48301783204078674,2.8289310932159424,-1.422759771347046
1665946245690489300,2.7174892578125,0.3311574161052704,2.299633264541626,-1.541427731513977
1665946245700571400,2.7275712890625,0.19641853868961334,2.0916457176208496,-1.3728187084197998
1665946245710652400,2.73765234375,0.27284640073776245,2.108649253845215,-1.258518934249878
1665946245720734500,2.747734375,0.2167825996875763,2.460535764694214,-1.1228268146514893
1665946245730816300,2.757816162109375,0.1827111542224884,1.6912405490875244,-0.9855801463127136
1665946245740898300,2.767898193359375,0.19546344876289368,0.9273614883422852,-0.46375373005867004
1665946245750979300,2.777979248046875,0.20560121536254883,0.6462380886077881,0.2781807780265808
1665946245761061400,2.788061279296875,0.17430774867534637,0.31809136271476746,0.8796216249465942
1665946245771143400,2.798143310546875,0.12711577117443085,0.3028070032596588,1.314615249633789
1665946245781225500,2.8082255859375,0.06493548303842545,0.5298001766204834,1.476608395576477
1665946245791306200,2.81830615234375,0.08545368909835815,1.1286215782165527,1.879599928855896
1665946245801388300,2.82838818359375,0.4330340027809143,1.7943532466888428,1.7310255765914917
1665946245811469800,2.8384697265625,0.7132951617240906,1.6404907703399658,0.8639732599258423
1665946245821551900,2.8485517578125,0.9049335718154907,1.7532747983932495,0.1127227246761322
1665946245831634000,2.858634033203125,1.3622604608535767,4.0515265464782715,1.4516217708587646
1665946245841715000,2.86871484375,2.1297523975372314,3.340998649597168,3.3095624446868896
1665946245851797000,2.878796875,2.2657721042633057,1.5409406423568726,3.550755739212036
1665946245861878800,2.888878662109375,1.815157175064087,0.43617352843284607,2.8567070960998535
1665946245871960800,2.8989609375,1.284781575202942,0.700151801109314,0.9357479214668274
1665946245882043000,2.90904296875,0.9021549820899963,1.6962641477584839,-0.027285486459732056
1665946245892124000,2.9191240234375,0.7181761264801025,2.039213180541992,0.026351958513259888
1665946245902206000,2.9292060546875,0.45679137110710144,2.1005263328552246,0.17099009454250336
1665946245912288000,2.9392880859375,-0.011046383529901505,2.024256944656372,-0.5782032012939453
1665946245922370000,2.9493701171875,-0.4847279191017151,2.0783743858337402,-0.9830484390258789
1665946245932450800,2.959450927734375,-0.9138848185539246,1.9676344394683838,-1.0410189628601074
1665946245942532900,2.969532958984375,-1.0690933465957642,1.7704532146453857,-0.9229379296302795
1665946245952615000,2.979614990234375,-0.6685330271720886,1.464042067527771,-0.8092597126960754
1665946245962696700,2.98969677734375,-0.15933237969875336,1.3971847295761108,-0.8467671871185303
1665946245972778800,2.99977880859375,0.046166881918907166,0.9505782127380371,-0.40123113989830017
1665946245982859800,3.00985986328125,0.009566791355609894,0.33074426651000977,0.017109930515289307
1665946245992941800,3.01994189453125,-0.14804622530937195,-0.03562065213918686,-0.03278942406177521
1665946246003024000,3.03002392578125,-0.40257999300956726,0.05528528615832329,-0.5620104074478149
1665946246013106000,3.04010595703125,-0.7519670724868774,0.5299383401870728,-1.1202274560928345
1665946246023187000,3.05018701171875,-0.9086901545524597,0.6700178980827332,-1.757912278175354
1665946246033269000,3.06026904296875,-1.1326037645339966,1.5416359901428223,-2.0499494075775146
1665946246043351000,3.07035107421875,-1.200160264968872,1.75749933719635,-2.132193088531494
1665946246053432800,3.080432861328125,-0.6468424201011658,1.6013649702072144,-2.1160855293273926
1665946246063515000,3.090514892578125,0.25047269463539124,0.833094596862793,-1.9002785682678223
1665946246073595600,3.100595703125,1.0514734983444214,0.22139666974544525,-1.4708813428878784
1665946246083677700,3.110677734375,1.932770013809204,-0.13428740203380585,-0.7623775601387024
1665946246093759700,3.120759765625,2.880927324295044,-0.21648436784744263,0.4024240970611572
1665946246103841800,3.130841796875,4.588822841644287,0.08402831852436066,1.9946924448013306
1665946246113922800,3.1409228515625,5.3826069831848145,-1.4399805068969727,2.16381573677063
1665946246124004900,3.1510048828125,5.324255466461182,-2.3202860355377197,2.7850279808044434
1665946246134087000,3.1610869140625,2.963996171951294,-1.5180062055587769,2.999089002609253
1665946246144169000,3.1711689453125,2.7024927139282227,-0.8480666875839233,2.548943519592285
1665946246154250800,3.181250732421875,3.2177865505218506,-1.0818103551864624,2.2663331031799316
1665946246164332000,3.19133203125,2.721635580062866,-0.22182242572307587,1.837615728378296
1665946246174413800,3.201413818359375,2.5691323280334473,-0.020465807989239693,1.2921133041381836
1665946246184495900,3.211495849609375,2.2389657497406006,-0.2954545021057129,0.9928032755851746
1665946246194578000,3.221577880859375,1.1328502893447876,-0.8519718050956726,1.095352292060852
1665946246204660000,3.231659912109375,-1.9695645570755005,-0.9544970989227295,1.36233651638031
1665946246214740700,3.24174072265625,-5.386971473693848,1.6685211658477783,1.8446927070617676
1665946246224822800,3.25182275390625,-5.441699981689453,3.1326632499694824,-0.40623849630355835
1665946246234904800,3.26190478515625,-3.4642624855041504,4.135075569152832,-1.654312014579773
1665946246244987000,3.27198681640625,-1.0376304388046265,4.638786315917969,-1.7828155755996704
1665946246255068700,3.282068603515625,-0.061676740646362305,2.7662415504455566,-1.1124522686004639
1665946246265150000,3.29214990234375,-0.2397703230381012,-0.20677562057971954,0.12546615302562714
1665946246275231700,3.302231689453125,-0.5368847250938416,-2.959348678588867,1.395223617553711
1665946246285313800,3.312313720703125,-0.5553454756736755,-4.384603977203369,2.181614398956299
1665946246295395800,3.322395751953125,-0.3859403729438782,-4.197947978973389,2.1339383125305176
1665946246305476900,3.332476806640625,-0.14054475724697113,-2.7508022785186768,1.3981516361236572
1665946246315559000,3.342558837890625,-0.1587417721748352,-0.9272711277008057,0.5328812599182129
1665946246325641000,3.352640869140625,-0.2772441804409027,0.7809813022613525,0.07072535157203674
1665946246335723000,3.362722900390625,-0.6367754340171814,1.7548248767852783,-0.16505640745162964
1665946246345805000,3.37280517578125,-1.0118027925491333,1.9163751602172852,-0.04338616877794266
1665946246355886000,3.382885986328125,-1.195926547050476,1.2840731143951416,0.4881342649459839
1665946246365968000,3.3929677734375,-1.1934229135513306,0.41288918256759644,1.4232550859451294
1665946246376049700,3.403049560546875,-1.3836954832077026,-0.3633030652999878,2.2720487117767334
1665946246386131700,3.413131591796875,-1.6092575788497925,-0.3167153298854828,3.052260637283325
1665946246396213800,3.4232138671875,-1.5606780052185059,-0.6478476524353027,3.3497314453125
1665946246406294800,3.433294677734375,-1.1023781299591064,-1.899239420890808,3.4971773624420166
1665946246416376800,3.443376953125,-0.22793230414390564,-2.74185848236084,3.576772928237915
1665946246426459000,3.453458984375,2.2117440700531006,-2.9943618774414062,3.1390037536621094
1665946246436541000,3.463541015625,4.783085346221924,-3.1143791675567627,3.639000415802002
1665946246446623000,3.473623046875,3.6569528579711914,-4.502171516418457,3.5288891792297363
1665946246456704000,3.4837041015625,-1.4720426797866821,-3.042382001876831,1.9118883609771729
1665946246466785800,3.493785888671875,-3.342074155807495,-1.5622413158416748,0.4730665385723114
1665946246476867800,3.503867919921875,-1.922629475593567,-0.40970346331596375,-0.45268383622169495
1665946246486950000,3.513949951171875,-0.29287171363830566,0.21675190329551697,-0.8398197889328003
1665946246497031000,3.524031005859375,0.30636516213417053,0.06011202931404114,0.006746090017259121
1665946246507113000,3.534113037109375,0.7152330875396729,-0.07270780205726624,0.7854061722755432
1665946246517194800,3.54419482421875,1.2894638776779175,0.3346150517463684,0.8065098524093628
1665946246527276800,3.55427685546875,1.2197428941726685,0.40775182843208313,0.15365372598171234
1665946246537358800,3.56435888671875,0.501551628112793,0.491595983505249,-0.55516517162323
1665946246547439900,3.57443994140625,-0.4227820038795471,0.5914597511291504,-1.041919469833374
1665946246557522000,3.58452197265625,-1.3012102842330933,0.5513244867324829,-1.381099820137024
1665946246567603700,3.594603759765625,-1.9796053171157837,0.8179908394813538,-1.500786542892456
1665946246577685800,3.604685791015625,-2.270796537399292,1.8840184211730957,-1.5063780546188354
1665946246587767800,3.614767822265625,-2.6712982654571533,2.4294819831848145,-1.6135135889053345
1665946246597848800,3.624848876953125,-2.6645736694335938,1.6629678010940552,-0.9957906603813171
1665946246607931000,3.634930908203125,-2.2437899112701416,1.163642406463623,-0.5594567656517029
1665946246618013000,3.645012939453125,-1.8120112419128418,0.7511717081069946,-0.21794314682483673
1665946246628095000,3.655094970703125,-1.6417598724365234,0.5490795969963074,0.13024811446666718
1665946246638177000,3.665177001953125,-1.7873914241790771,0.32338985800743103,0.32976585626602173
1665946246648258000,3.675258056640625,-1.814897060394287,0.42904144525527954,0.10904332995414734
1665946246658340000,3.685340087890625,-1.8113276958465576,0.3496207296848297,-0.16806018352508545
1665946246668422000,3.695421875,-1.6845444440841675,0.25108802318573,-0.22829794883728027
1665946246678503700,3.705503662109375,-1.1563935279846191,-0.23673376441001892,-0.05917749181389809
1665946246688585700,3.715585693359375,-0.2841382324695587,-0.8064550161361694,0.20979219675064087
1665946246698666800,3.725666748046875,0.5276517271995544,-1.0525957345962524,0.24395251274108887
1665946246708748800,3.735748779296875,0.6051017642021179,-1.2098921537399292,0.05018702894449234
1665946246718830800,3.745830810546875,0.1799902617931366,-1.2201181650161743,-0.3434983193874359
1665946246728913000,3.755912841796875,-0.15087048709392548,-1.9954005479812622,-0.8710066080093384
1665946246738995000,3.765994873046875,-0.3265397250652313,-2.445998430252075,-1.7560845613479614
1665946246749076000,3.776075927734375,-0.286104679107666,-2.1087119579315186,-1.9398016929626465
1665946246759158000,3.786157958984375,0.26117804646492004,-2.301377058029175,-1.7976438999176025
1665946246769239800,3.79623974609375,1.017682433128357,-2.3067781925201416,-1.6303499937057495
1665946246779321900,3.80632177734375,1.666677474975586,-3.102078676223755,-2.3860342502593994
1665946246789404000,3.81640380859375,2.060068130493164,-3.37074875831604,-3.1967520713806152
1665946246799485000,3.82648486328125,1.9571845531463623,-3.816580057144165,-3.8283302783966064
1665946246809567200,3.836567138671875,1.6894516944885254,-3.1551036834716797,-4.196101188659668
1665946246819649300,3.846649169921875,1.3922975063323975,-1.7974046468734741,-3.944661855697632
1665946246829731300,3.8567314453125,0.964441180229187,0.6772547364234924,-2.8166234493255615
1665946246839813000,3.866813232421875,0.5946623086929321,2.4111850261688232,-1.4475514888763428
1665946246849894400,3.876894287109375,0.39894765615463257,2.670574188232422,-0.6641330718994141
1665946246859976200,3.88697607421875,0.31428593397140503,2.3955793380737305,-0.5675958395004272
1665946246870058200,3.897058349609375,0.27399417757987976,2.032639503479004,-0.9427912831306458
1665946246880140300,3.907140380859375,0.1620519608259201,1.3582714796066284,-1.5484089851379395
1665946246890222300,3.917222412109375,-0.09515613317489624,0.5084847211837769,-2.2014830112457275
1665946246900304400,3.927304443359375,-0.35387569665908813,-0.3928301930427551,-3.0170905590057373
1665946246910385200,3.93738525390625,-0.627888023853302,-0.5018802881240845,-3.2446064949035645
1665946246920467200,3.94746728515625,-0.8685557246208191,-0.04179450124502182,-2.771048069000244
1665946246930549200,3.95754931640625,-1.0169793367385864,0.0537746325135231,-2.1274726390838623
1665946246940631000,3.967631103515625,-1.2328914403915405,-0.054012104868888855,-1.729455590248108
1665946246950713000,3.977713134765625,-1.4368141889572144,0.19827421009540558,-1.437766194343567
1665946246960794000,3.987794189453125,-1.6362825632095337,0.6364609003067017,-1.0922951698303223
1665946246970876200,3.997876220703125,-1.7818719148635864,1.1145234107971191,-0.7114453315734863
1665946246980958200,4.007958251953125,-1.9102493524551392,1.54416024684906,-0.5434163212776184
1665946246991040300,4.018040283203125,-1.482749104499817,0.9473639726638794,-1.459195613861084
1665946247001122300,4.028122314453125,-2.650266647338867,1.4442929029464722,-3.3056087493896484
1665946247011203300,4.038203369140625,-3.1991894245147705,3.7595882415771484,-4.018239498138428
1665946247021285400,4.048285400390625,-2.450354814529419,3.869191884994507,-3.3582205772399902
1665946247031367400,4.058367431640625,-0.544668436050415,1.5042872428894043,-2.1184818744659424
1665946247041449200,4.06844921875,0.7712234258651733,-1.205045461654663,-1.2644306421279907
1665946247051531300,4.07853125,0.7094823122024536,-0.30937081575393677,-0.551440417766571
1665946247061613300,4.08861328125,0.9001169800758362,1.33998703956604,0.01514237467199564
1665946247071694000,4.098694091796875,1.8242863416671753,2.8183767795562744,0.9734761118888855
1665946247081776000,4.108776123046875,1.5857203006744385,3.4333083629608154,1.2074546813964844
1665946247091858200,4.118858154296875,1.7050762176513672,3.6861157417297363,1.1388146877288818
1665946247101940200,4.128940185546875,1.6551828384399414,2.670844554901123,0.5783940553665161
1665946247112022300,4.139022216796875,1.2460592985153198,2.3818466663360596,0.005357683636248112
1665946247122103300,4.149103271484375,1.1158767938613892,2.5457396507263184,-0.2728238105773926
1665946247132185300,4.159185302734375,1.1751155853271484,2.3422701358795166,-0.30786141753196716
1665946247142267100,4.16926708984375,1.143561840057373,2.098851442337036,-0.14484083652496338
1665946247152349200,4.17934912109375,1.1004247665405273,1.8884608745574951,0.014600756578147411
1665946247162431200,4.18943115234375,1.0436002016067505,1.6014156341552734,0.12264174968004227
1665946247172512300,4.19951220703125,0.988027811050415,1.2996448278427124,0.19662757217884064
1665946247182594300,4.20959423828125,0.8945130109786987,1.074198603630066,0.277461439371109
1665946247192676400,4.21967626953125,0.7965238690376282,0.9431212544441223,0.3422985076904297
1665946247202758400,4.22975830078125,0.7252737879753113,1.0028170347213745,0.43173083662986755
1665946247212840200,4.239840087890625,0.7006598114967346,1.055530071258545,0.5486939549446106
1665946247222922200,4.249922119140625,0.7427119612693787,1.0344005823135376,0.584979772567749
1665946247233003300,4.260003173828125,0.716081440448761,0.949280858039856,0.5612369179725647
1665946247243085000,4.2700849609375,0.6083127856254578,0.992374062538147,0.5140998959541321
1665946247253167000,4.2801669921875,0.5401862263679504,1.0915391445159912,0.44788625836372375
1665946247263249200,4.290249267578125,0.43730226159095764,1.109968900680542,0.41770973801612854
1665946247273331200,4.300331298828125,0.3763166666030884,1.2254880666732788,0.42442065477371216
1665946247283412200,4.310412109375,0.36772167682647705,1.3712716102600098,0.4270133674144745
1665946247293494300,4.320494384765625,0.3733159005641937,1.4652104377746582,0.44264480471611023
1665946247303576300,4.330576416015625,0.3584824800491333,1.62306809425354,0.37781235575675964
1665946247313658000,4.340658203125,0.35300835967063904,1.7570695877075195,0.2481694221496582
1665946247323740200,4.350740234375,0.4233306646347046,1.8987245559692383,0.12072805315256119
1665946247333822200,4.360822265625,0.502805769443512,2.0111491680145264,0.02312319725751877
1665946247343903200,4.3709033203125,0.5479560494422913,1.9402421712875366,-0.027089281007647514
1665946247353985300,4.3809853515625,0.5971958041191101,1.6662664413452148,-0.06117668002843857
1665946247364067300,4.3910673828125,0.6518392562866211,1.2725188732147217,-0.11649295687675476
1665946247374149400,4.4011494140625,0.7043195366859436,0.9819743633270264,-0.20287658274173737
1665946247384231400,4.4112314453125,0.7533984184265137,0.8693190813064575,-0.273072212934494
1665946247394313200,4.421313232421875,0.7584512233734131,0.9432668089866638,-0.3033962845802307
1665946247404394200,4.431394287109375,0.8023003339767456,1.0976320505142212,-0.2970239818096161
1665946247414476000,4.44147607421875,0.8910232782363892,1.5410923957824707,-0.3521921634674072
1665946247424558000,4.45155810546875,0.8661346435546875,1.9587243795394897,-0.5647663474082947
1665946247434639000,4.46163916015625,0.7559362649917603,2.2874951362609863,-0.8475306630134583
1665946247444721200,4.47172119140625,0.9244839549064636,2.3581202030181885,-0.9031708240509033
1665946247454803200,4.48180322265625,1.114040493965149,1.6379601955413818,-0.4251813590526581
1665946247464885200,4.49188525390625,1.1373738050460815,0.26425182819366455,0.24365819990634918
1665946247474967300,4.50196728515625,1.0176180601119995,-0.7254627346992493,0.7065554857254028
1665946247485048300,4.51204833984375,0.7740923762321472,-0.91468346118927,1.1159745454788208
1665946247495130400,4.52213037109375,0.3539752662181854,-0.15033435821533203,1.1141105890274048
1665946247505212400,4.53221240234375,-0.3102104663848877,1.0359026193618774,0.5321604609489441
1665946247515294200,4.542294189453125,-1.0131187438964844,1.6664949655532837,0.018544016405940056
1665946247525376300,4.552376220703125,-1.3250820636749268,1.1406916379928589,0.06330595910549164
1665946247535458300,4.562458251953125,-1.2095144987106323,-0.2568763792514801,0.7255728840827942
1665946247545539000,4.5725390625,-0.9248529672622681,-1.660258173942566,1.5629056692123413
1665946247555621000,4.58262109375,-0.6894564032554626,-2.3407392501831055,2.1398963928222656
1665946247565703200,4.592703125,-0.4399993121623993,-2.4230077266693115,2.379499912261963
1665946247575785200,4.60278515625,-0.17890992760658264,-1.7925666570663452,2.257101058959961
1665946247585867300,4.6128671875,-0.04861169308423996,-1.0194910764694214,1.858275294303894
1665946247595949000,4.622948974609375,-0.059542372822761536,-0.6471015214920044,1.378956913948059
1665946247606030300,4.6330302734375,-0.04411716014146805,-0.5801321864128113,0.990692138671875
1665946247616112000,4.643112060546875,-0.0351036936044693,-0.32493340969085693,0.836471676826477
1665946247626194200,4.653194091796875,-0.1212872564792633,-0.23472397029399872,0.8411060571670532
1665946247636276200,4.663276123046875,-0.22947604954242706,-0.22801093757152557,1.0028935670852661
1665946247646358300,4.673358154296875,-0.30592024326324463,-0.3002481758594513,1.1984915733337402
1665946247656440300,4.6834404296875,-0.4081510007381439,-0.4428862929344177,1.36588454246521
1665946247666521300,4.693521240234375,-0.5156700611114502,-0.664505124092102,1.519382357597351
1665946247676603400,4.703603271484375,-0.5218954086303711,-0.9088056683540344,1.57526433467865
1665946247686685400,4.713685546875,-0.4559907615184784,-0.991296648979187,1.5210107564926147
1665946247696767200,4.723767333984375,-0.3840763568878174,-0.9305917620658875,1.451722502708435
1665946247706849300,4.733849365234375,-0.34051984548568726,-0.9531348943710327,1.4015218019485474
1665946247716931300,4.743931396484375,-0.32736730575561523,-1.086342453956604,1.330875277519226
1665946247727012000,4.75401220703125,-0.3758310377597809,-1.1963281631469727,1.2841755151748657
1665946247737094100,4.76409423828125,-0.3304435908794403,-1.269518256187439,1.2273532152175903
1665946247747176200,4.77417626953125,-0.31223592162132263,-1.2607622146606445,1.1770638227462769
1665946247757258200,4.78425830078125,-0.3477795124053955,-1.2276939153671265,1.1846721172332764
1665946247767340300,4.79434033203125,-0.4295951724052429,-1.2950665950775146,1.1437137126922607
1665946247777421300,4.80442138671875,-0.5141041874885559,-1.2585160732269287,1.042618751525879
1665946247787503400,4.81450341796875,-0.5959195494651794,-1.1394116878509521,0.9676326513290405
1665946247797585200,4.824585205078125,-0.6322940587997437,-0.9551384449005127,0.8737141489982605
1665946247807667200,4.834667236328125,-0.5963931679725647,-0.7382792830467224,0.8055964112281799
1665946247817749500,4.84474951171875,-0.5538648366928101,-0.615397572517395,0.7649070024490356
1665946247827831600,4.85483154296875,-0.5368012189865112,-0.579687237739563,0.7373318672180176
1665946247837912600,4.86491259765625,-0.5108619928359985,-0.5884522199630737,0.7431942820549011
1665946247847994600,4.87499462890625,-0.484170138835907,-0.632946789264679,0.7830310463905334
1665946247858076700,4.88507666015625,-0.45551052689552307,-0.6314522624015808,0.8426586985588074
1665946247868158500,4.895158447265625,-0.4342246651649475,-0.6144284009933472,0.9020811319351196
1665946247878240500,4.905240478515625,-0.4276277422904968,-0.59889817237854,0.9478403925895691
1665946247888322600,4.915322509765625,-0.4100320339202881,-0.6351832747459412,0.9592115879058838
1665946247898403600,4.925403564453125,-0.4031067490577698,-0.7357288002967834,0.9095814824104309
1665946247908485400,4.9354853515625,-0.4082784950733185,-0.8130949139595032,0.8318374156951904
1665946247918567400,4.9455673828125,-0.4034222364425659,-0.8581153750419617,0.7799872756004333
1665946247928649500,4.9556494140625,-0.4066213369369507,-0.8513387441635132,0.7398823499679565
1665946247938731500,4.9657314453125,-0.40327054262161255,-0.7799029350280762,0.7216066718101501
1665946247948813300,4.975813232421875,-0.41202494502067566,-0.6538600921630859,0.6959701180458069
1665946247958894600,4.98589453125,-0.4032876491546631,-0.5241319537162781,0.6515030264854431
1665946247968976400,4.995976318359375,-0.3973385691642761,-0.453210711479187,0.5912555456161499
1665946247979058400,5.006058349609375,-0.38118651509284973,-0.49413952231407166,0.5122036337852478
1665946247989140500,5.016140380859375,-0.332251638174057,-0.4981168806552887,0.43664875626564026
1665946247999222500,5.026222412109375,-0.32262271642684937,-0.5881386995315552,0.3757864534854889
1665946248009304600,5.0363046875,-0.2634849548339844,-0.6609905958175659,0.3304831385612488
1665946248019385600,5.046385498046875,-0.20066046714782715,-0.7091725468635559,0.3193058371543884
1665946248029467600,5.056467529296875,-0.1483142077922821,-0.7488676905632019,0.3138366639614105
1665946248039549700,5.0665498046875,-0.1130174770951271,-0.8025231957435608,0.27516916394233704
1665946248049631500,5.076631591796875,-0.08827466517686844,-0.8896670341491699,0.20940832793712616
1665946248059713500,5.086713623046875,-0.08014536648988724,-1.000375747680664,0.12378343939781189
1665946248069795600,5.096795654296875,-0.07378306984901428,-1.111785888671875,0.020971089601516724
1665946248079876400,5.10687646484375,-0.08024390041828156,-1.2515802383422852,-0.08651489019393921
1665946248089958400,5.11695849609375,-0.05467738211154938,-1.370138168334961,-0.20475906133651733
1665946248100040400,5.12704052734375,0.10635651648044586,-1.3523316383361816,-0.3969884216785431
1665946248110122500,5.13712255859375,0.2928065359592438,-1.299984335899353,-0.5319885611534119
1665946248120204500,5.14720458984375,0.4575915038585663,-1.2887334823608398,-0.4688282608985901
1665946248130286300,5.157286376953125,0.6074038147926331,-1.2078189849853516,-0.3693872392177582
1665946248140367600,5.16736767578125,0.6557987332344055,-1.0420646667480469,-0.4508171081542969
1665946248150449400,5.177449462890625,0.6815784573554993,-0.7043514847755432,-0.713280439376831
1665946248160531500,5.187531494140625,0.7114927172660828,-0.280227392911911,-1.0065523386001587
1665946248170613500,5.197613525390625,0.6685600876808167,-0.11669739335775375,-1.215157389640808
1665946248180695600,5.207695556640625,0.6597514152526855,-0.21089871227741241,-1.3745465278625488
1665946248190777600,5.217777587890625,0.6127133965492249,-0.35328468680381775,-1.5882484912872314
1665946248200859600,5.227859619140625,0.5177988409996033,-0.3754078447818756,-1.8642293214797974
1665946248210940700,5.237940673828125,0.43552765250205994,-0.35353055596351624,-2.09438157081604
1665946248221022700,5.248022705078125,0.36134982109069824,-0.34733206033706665,-2.2155046463012695
1665946248231104500,5.2581044921875,0.3141461908817291,-0.36411193013191223,-2.310612440109253
1665946248241186600,5.2681865234375,0.2821453809738159,-0.5055963397026062,-2.3541007041931152
1665946248251268600,5.2782685546875,0.25995874404907227,-0.7898945808410645,-2.3102588653564453
1665946248261350700,5.2883505859375,0.2545144259929657,-1.1292822360992432,-2.182884454727173
1665946248271431400,5.298431396484375,0.2694545090198517,-1.5155696868896484,-2.0740180015563965
1665946248281513500,5.308513427734375,0.2666661739349365,-1.8832608461380005,-1.9398521184921265
1665946248291595500,5.318595458984375,0.20518167316913605,-2.090580463409424,-1.8157727718353271
1665946248301677600,5.328677490234375,0.15871404111385345,-2.0343902111053467,-1.7213629484176636
1665946248311759400,5.33875927734375,0.12770606577396393,-1.7640814781188965,-1.6745624542236328
1665946248321841400,5.34884130859375,0.17026177048683167,-1.4488779306411743,-1.61934232711792
1665946248331923500,5.35892333984375,0.24881283938884735,-1.1624947786331177,-1.4782264232635498
1665946248342004500,5.36900439453125,0.2945166826248169,-0.9404863119125366,-1.288125991821289
1665946248352086500,5.37908642578125,0.3431810140609741,-0.9353311061859131,-1.1597802639007568
1665946248362168600,5.38916845703125,0.426390141248703,-0.9539567232131958,-1.0574573278427124
1665946248372250600,5.399250732421875,0.48890095949172974,-0.9639565944671631,-0.9990832209587097
1665946248382332700,5.409332763671875,0.5096725225448608,-0.9742550253868103,-0.9236113429069519
1665946248392414500,5.41941455078125,0.5128899812698364,-0.9120925664901733,-0.8178457617759705
1665946248402495700,5.429495849609375,0.5035990476608276,-0.780231237411499,-0.7113739252090454
1665946248412577500,5.43957763671875,0.4563136696815491,-0.7387561798095703,-0.6331830620765686
1665946248422659600,5.44965966796875,0.39452648162841797,-0.8226897120475769,-0.5903671383857727
1665946248432741600,5.45974169921875,0.33139944076538086,-0.8940601944923401,-0.571478009223938
1665946248442823700,5.46982373046875,0.29426857829093933,-0.9727225303649902,-0.560575544834137
1665946248452905500,5.479905517578125,0.287544846534729,-1.0263586044311523,-0.5474628806114197
1665946248462987500,5.489987548828125,0.3060103952884674,-1.043453335762024,-0.5411506295204163
1665946248473068500,5.500068603515625,0.3187949061393738,-1.0718053579330444,-0.5401216149330139
1665946248483150600,5.510150634765625,0.31491148471832275,-1.0719635486602783,-0.56007319688797
1665946248493232400,5.520232421875,0.3170008361339569,-1.025856375694275,-0.5920119881629944
1665946248503314400,5.530314453125,0.34443938732147217,-0.96100252866745,-0.6367219686508179
1665946248513396500,5.540396484375,0.37773752212524414,-0.9100253582000732,-0.6826358437538147
1665946248523478500,5.550478515625,0.4396539032459259,-0.8326677083969116,-0.7264062166213989
1665946248533560600,5.560560546875,0.5143131017684937,-0.6984977126121521,-0.7707947492599487
1665946248543641600,5.5706416015625,0.5910747051239014,-0.6205363869667053,-0.8217458128929138
1665946248553723600,5.5807236328125,0.6423262357711792,-0.5872774720191956,-0.873976469039917
1665946248563805700,5.5908056640625,0.6544239521026611,-0.6346145868301392,-0.9858949780464172
1665946248573887500,5.600887451171875,0.664191722869873,-0.7575585246086121,-1.2053171396255493
1665946248583969500,5.610969482421875,0.6495363712310791,-0.8725413084030151,-1.374450445175171
1665946248594051600,5.621051513671875,0.49600329995155334,-0.792456328868866,-1.2638487815856934
1665946248604132400,5.63113232421875,0.2996217906475067,-1.0640580654144287,-0.8160504698753357
1665946248614214400,5.64121435546875,0.20643937587738037,-1.8782081604003906,-0.3188469111919403
1665946248624296400,5.65129638671875,0.058601438999176025,-2.04127836227417,-0.2329714149236679
1665946248634378500,5.66137841796875,-0.2675611078739166,-1.256332278251648,-0.3302748501300812
1665946248644460500,5.67146044921875,-0.5957956910133362,-0.6136012077331543,-0.13531680405139923
1665946248654542300,5.681542236328125,-0.8207985162734985,-0.2699364423751831,0.04259929805994034
1665946248664624400,5.691624267578125,-1.0276222229003906,-0.05726759508252144,0.08711749315261841
1665946248674705400,5.701705322265625,-1.3295937776565552,-0.05472573637962341,0.3313579857349396
1665946248684787500,5.711787353515625,-1.750343680381775,-0.19759128987789154,0.9451268315315247
1665946248694869500,5.721869384765625,-1.9329885244369507,-0.096348337829113,1.269481897354126
1665946248704951600,5.73195166015625,-2.133105516433716,-0.007326855789870024,1.3904165029525757
1665946248715033600,5.74203369140625,-2.291733741760254,-0.09784800559282303,1.7724031209945679
1665946248725115600,5.75211572265625,-2.315767288208008,-0.6547056436538696,2.338733196258545
1665946248735197400,5.762197509765625,-2.094609022140503,-1.257737398147583,2.9143521785736084
1665946248745278700,5.77227880859375,-1.68411123752594,-1.7647079229354858,3.0720560550689697
1665946248755360500,5.782360595703125,-1.145743489265442,-1.9839998483657837,2.9701528549194336
1665946248765442600,5.792442626953125,-0.6014087796211243,-2.2458040714263916,2.800323009490967
1665946248775524600,5.802524658203125,-0.1988128125667572,-2.668260335922241,2.585782766342163
1665946248785606700,5.812606689453125,0.03645030036568642,-2.8927059173583984,2.383593797683716
1665946248795688700,5.822688720703125,0.03701933100819588,-2.5178325176239014,2.245001792907715
1665946248805770800,5.832770751953125,-0.1956551969051361,-1.8464776277542114,1.9791944026947021
1665946248815851800,5.842851806640625,-0.4044685959815979,-1.309686303138733,1.4934585094451904
1665946248825933600,5.85293359375,-0.6005494594573975,-1.1371281147003174,0.9852269291877747
1665946248836015600,5.863015625,-0.8255659937858582,-1.2684905529022217,0.514010488986969
1665946248846097700,5.87309765625,-0.8393252491950989,-1.387569546699524,0.08909519016742706
1665946248856179700,5.8831796875,-0.6359919905662537,-1.6498520374298096,-0.28427955508232117
1665946248866261800,5.89326171875,-0.40532946586608887,-1.8042333126068115,-0.6122776865959167
1665946248876343800,5.90334375,-0.09171216934919357,-2.031116485595703,-0.7692893147468567
1665946248886425900,5.91342578125,0.20951823890209198,-1.9515230655670166,-0.8440735340118408
1665946248896506600,5.923506591796875,0.4065009653568268,-1.6993751525878906,-1.0479224920272827
1665946248906588700,5.933588623046875,0.3775428235530853,-1.4308058023452759,-1.1263355016708374
1665946248916670500,5.94367041015625,0.23758329451084137,-1.1028084754943848,-1.1221330165863037
1665946248926752500,5.95375244140625,0.14907287061214447,-1.168398141860962,-1.099082350730896
1665946248936834600,5.96383447265625,0.10502161085605621,-1.4672983884811401,-1.040274977684021
1665946248946916600,5.97391650390625,0.08850175142288208,-1.8712961673736572,-0.8362637758255005
1665946248956998700,5.98399853515625,0.09391305595636368,-2.2259092330932617,-0.47244569659233093
1665946248967079700,5.99407958984375,0.12873734533786774,-2.3135182857513428,-0.11753131449222565
1665946248977161700,6.00416162109375,0.2085331380367279,-2.017273426055908,0.09817095100879669
1665946248987243800,6.014243896484375,0.197969451546669,-1.5926005840301514,0.24485813081264496
1665946248997325600,6.02432568359375,0.03879842534661293,-1.1597230434417725,0.307304322719574
1665946249007407600,6.03440771484375,-0.11996937543153763,-0.7964869737625122,0.24721543490886688
1665946249017489700,6.04448974609375,-0.18708422780036926,-0.7131344676017761,0.18827153742313385
1665946249027571700,6.05457177734375,-0.1642122119665146,-0.9401591420173645,0.13783393800258636
1665946249037652700,6.06465283203125,-0.09963927417993546,-1.3418817520141602,0.03835967183113098
1665946249047734800,6.07473486328125,-0.04449852555990219,-1.6901334524154663,-0.0701012909412384
1665946249057816800,6.08481689453125,0.014393758028745651,-1.869144082069397,-0.13466376066207886
1665946249067898600,6.094898681640625,0.032765574753284454,-1.928229808807373,-0.1427864134311676
1665946249077980700,6.104980712890625,0.01546061784029007,-1.9237563610076904,-0.1176990196108818
1665946249088062700,6.115062744140625,-0.015664810314774513,-1.9553701877593994,-0.18500110507011414
1665946249098144800,6.125144775390625,-0.04070136323571205,-2.017793655395508,-0.339462548494339
1665946249108226600,6.1352265625,-0.06950504332780838,-1.8526651859283447,-0.565295934677124
1665946249118307600,6.1453076171875,-0.11137985438108444,-1.3449550867080688,-0.764957845211029
1665946249128389600,6.1553896484375,-0.16219669580459595,-0.6548232436180115,-0.9385672211647034
1665946249138471700,6.1654716796875,-0.28500550985336304,-0.11527232825756073,-1.199460744857788
1665946249148553700,6.1755537109375,-0.3207680583000183,0.9353755712509155,-1.2980800867080688
1665946249158635500,6.185635498046875,-0.39327216148376465,1.5845459699630737,-0.553560197353363
1665946249168717600,6.195717529296875,-0.41103917360305786,0.23875239491462708,0.580723226070404
1665946249178799600,6.205799560546875,-0.029287472367286682,-2.1023809909820557,-0.03276320919394493
1665946249188881700,6.215881591796875,0.5329383015632629,-3.5668108463287354,-1.203423023223877
1665946289507613200,46.53461328125,0.3447740375995636,1.3257067203521729,0.8066287040710449
1665946289517695200,46.5446953125,0.46016186475753784,0.7079201936721802,0.7248477935791016
1665946289527776300,46.5547763671875,0.689604640007019,-0.08620143681764603,0.5914593935012817
1665946289537858300,46.5648583984375,1.025741696357727,-0.9638085961341858,0.39072203636169434
1665946289547939300,46.574939208984375,1.3186073303222656,-1.1680161952972412,-0.09490088373422623
1665946289558021400,46.585021484375,1.6932331323623657,-1.2886024713516235,-0.6687117218971252
1665946289568103400,46.595103515625,1.543035626411438,-1.6736010313034058,-0.9776880145072937
1665946289578184200,46.60518408203125,0.8902208209037781,-1.6987402439117432,-1.2001007795333862
1665946289588266200,46.61526635742187,0.39306876063346863,-1.4449766874313354,-1.560439944267273
1665946289598348000,46.62534814453125,0.31807735562324524,-1.4333469867706299,-1.8267877101898193
1665946289608429300,46.63542919921875,0.23597779870033264,-1.2442058324813843,-2.097362995147705
1665946289618511000,46.64551098632813,0.05309373140335083,-1.0874961614608765,-2.284233570098877
1665946289628593200,46.65559326171875,-0.07419958710670471,-0.9552386999130249,-2.4346938133239746
1665946289638674200,46.665674072265624,-0.08835215866565704,-0.8641141057014465,-2.508989095687866
1665946289648756200,46.675756103515624,-0.005507519468665123,-0.8578360676765442,-2.4959001541137695
1665946289658837200,46.68583715820313,0.15900951623916626,-0.9901189804077148,-2.391469955444336
1665946289668919300,46.69591918945312,0.3932083547115326,-1.2447471618652344,-2.2067253589630127
1665946289679001300,46.70600146484375,0.6439633369445801,-1.5210638046264648,-1.9861071109771729
1665946289689082000,46.71608203125,0.850691556930542,-1.8006387948989868,-1.7691649198532104
1665946289699164200,46.7261640625,0.987642228603363,-2.076158285140991,-1.5980541706085205
1665946289709246200,46.73624609375,1.074018120765686,-2.370506525039673,-1.4860442876815796
1665946289719327200,46.7463271484375,1.268733263015747,-2.8079800605773926,-1.4167519807815552
1665946289729409300,46.7564091796875,1.7267537117004395,-3.569636583328247,-1.270513892173767
1665946289739491300,46.7664912109375,2.424494743347168,-4.7526350021362305,-0.9174674153327942
1665946289749572400,46.776572265625,3.04440975189209,-4.589453220367432,-0.4292764663696289
1665946289759654400,46.786654296875,3.204498529434204,-2.969780445098877,0.07728791236877441
1665946289769735400,46.7967353515625,2.9740428924560547,-0.9494343400001526,0.43829599022865295
1665946289779817200,46.806817138671875,2.524616241455078,0.636172354221344,0.7423350214958191
1665946289789899300,46.816899169921875,2.2709739208221436,1.936427354812622,0.6561500430107117
1665946289799980300,46.82698022460937,2.2482829093933105,1.6594558954238892,0.6267311573028564
1665946289810062000,46.83706201171875,2.4007251262664795,1.2222975492477417,0.34586361050605774
1665946289820144000,46.84714404296875,2.4975497722625732,0.7253666520118713,0.09080255776643753
1665946289830225200,46.85722509765625,2.5826101303100586,0.5069491267204285,-0.005571938119828701
1665946289840307200,46.86730712890625,2.605431318283081,0.6475648283958435,0.05114007741212845
1665946289850389200,46.87738916015625,2.5384199619293213,0.9050330519676208,0.07638457417488098
1665946289860470300,46.88747021484375,2.4438745975494385,1.127139687538147,-0.05680730566382408
1665946289870552300,46.89755224609375,2.3363616466522217,1.2590456008911133,-0.3780723810195923
1665946289880633300,46.90763330078125,2.1923701763153076,1.2599936723709106,-0.7679551839828491
1665946289890715100,46.91771508789063,2.0934243202209473,1.2748825550079346,-0.988574743270874
1665946289900797200,46.92779711914063,2.1602377891540527,1.0028594732284546,-0.9832577705383301
1665946289910878200,46.937878173828125,2.3108179569244385,0.565857470035553,-0.8849245309829712
1665946289920960300,46.947960205078125,2.50811505317688,0.38898786902427673,-0.8058440685272217
1665946289931042300,46.958042236328126,2.638416051864624,0.48799553513526917,-0.7942512631416321
1665946289941123300,46.96812329101562,2.6834754943847656,0.5155171155929565,-0.7587451934814453
1665946289951205400,46.97820532226562,2.6758618354797363,0.43470436334609985,-0.6816487312316895
1665946289961287200,46.988287109375,2.623919725418091,0.395169734954834,-0.5841605067253113
1665946289971368200,46.9983681640625,2.516376495361328,0.37725475430488586,-0.5256149172782898
1665946289981450000,47.008449951171876,2.3394625186920166,0.4234353005886078,-0.5848191380500793
1665946289991532000,47.01853198242188,2.176137924194336,0.5419368743896484,-0.7116485238075256
1665946290001613000,47.02861303710937,2.0666067600250244,0.7815729379653931,-0.8247660398483276
1665946290011695000,47.038695068359374,1.9571826457977295,0.9875786900520325,-0.9053221940994263
1665946290021776100,47.04877612304688,1.7752912044525146,1.114930272102356,-0.9393320679664612
1665946290031858200,47.05885815429688,1.5617752075195312,1.1038309335708618,-0.97025465965271
1665946290041940200,47.06894018554687,1.4313240051269531,1.0411269664764404,-1.0062544345855713
1665946290052021000,47.07902099609375,1.4173849821090698,0.871694803237915,-1.0175809860229492
1665946290062103000,47.08910302734375,1.4218941926956177,0.5756894946098328,-0.9485265612602234
1665946290072185000,47.09918505859375,1.1426597833633423,0.46186453104019165,-0.679076611995697
1665946290082266000,47.10926611328125,0.9641867280006409,0.5308971405029297,-0.29495611786842346
1665946290092348200,47.11934814453125,1.0524204969406128,0.6028386354446411,-0.05309286341071129
1665946290102430200,47.12943017578125,1.1859174966812134,0.8233680725097656,-0.03375352546572685
1665946290112511200,47.13951123046875,1.2986454963684082,0.8489120602607727,-0.053560685366392136
1665946290122593300,47.14959326171875,1.335219144821167,1.027708649635315,-0.03505917638540268
1665946290132675000,47.15967504882813,1.295045256614685,1.2879700660705566,-0.006756141781806946
1665946290142756000,47.169756103515624,1.1688989400863647,1.2038147449493408,0.05750167369842529
1665946290152838100,47.179838134765625,1.0363141298294067,0.9924539923667908,0.24093160033226013
1665946290162920000,47.189919921875,0.6713000535964966,1.1864147186279297,0.7265288829803467
1665946290173001000,47.2000009765625,0.6476487517356873,1.2358916997909546,0.952008068561554
1665946290183083000,47.2100830078125,0.8015645146369934,1.094041109085083,1.047813057899475
1665946290193164000,47.2201640625,0.7853487133979797,0.9212105870246887,1.0473624467849731
1665946290203246000,47.23024609375,0.5984645485877991,0.6606631875038147,0.9575897455215454
1665946290213328100,47.240328125,0.38933515548706055,0.39123716950416565,0.8246150016784668
1665946290223409200,47.2504091796875,0.23640555143356323,0.33279305696487427,0.6935590505599976
1665946290233491200,47.2604912109375,0.14370043575763702,0.2739980220794678,0.617506206035614
1665946290243573200,47.2705732421875,0.11861450970172882,0.13745322823524475,0.588228166103363
1665946290253654000,47.28065405273438,0.19432500004768372,0.09265873581171036,0.5801438093185425
1665946290263736000,47.29073608398438,0.27550238370895386,0.06412988901138306,0.529143750667572
1665946290273818000,47.30081811523438,0.3090219497680664,0.03692266345024109,0.4206680655479431
1665946290283899100,47.310899169921875,0.2981320321559906,0.07377255707979202,0.2866218388080597
1665946290293981200,47.320981201171875,0.2445354014635086,0.12682020664215088,0.19628076255321503
1665946290304063000,47.33106298828125,0.1451835185289383,0.14750312268733978,0.17128939926624298
1665946290314144300,47.34114428710937,0.04200240224599838,0.11473846435546875,0.1779053658246994
1665946290324226000,47.35122607421875,-0.005267374217510223,0.0388367734849453,0.16989482939243317
1665946290334308000,47.36130810546875,0.022242821753025055,-0.0018453765660524368,0.09476444870233536
1665946290344389000,47.37138916015625,0.10057597607374191,0.02610982581973076,-0.02797824889421463
1665946290354471200,47.38147119140625,0.19512856006622314,0.047400545328855515,-0.13873225450515747
1665946290364553200,47.39155322265625,0.2835886478424072,0.11100562661886215,-0.21198409795761108
1665946290374634000,47.40163403320312,0.38105466961860657,0.2042345553636551,-0.26102325320243835
1665946290384716000,47.411716064453124,0.44462111592292786,0.23656852543354034,-0.3182465732097626
1665946290394798000,47.421798095703124,0.5088267922401428,0.28023725748062134,-0.34058883786201477
1665946290404879000,47.43187915039063,0.5439315438270569,0.2664937376976013,-0.2964741289615631
1665946290414961200,47.44196118164062,0.5521625876426697,0.157437264919281,-0.17566367983818054
1665946290425043200,47.45204321289062,0.5547146797180176,0.002722529461607337,0.01050566229969263
1665946290435124200,47.462124267578126,0.5030689239501953,-0.27644917368888855,0.2354097068309784
1665946290445206300,47.47220629882813,0.456626832485199,-0.35642123222351074,0.4475992023944855
1665946290455288000,47.4822880859375,0.37328898906707764,-0.3829357624053955,0.6375307440757751
1665946290465369300,47.492369384765624,0.3054071366786957,-0.3605273962020874,0.8250106573104858
1665946290475451100,47.502451171875,0.26007184386253357,-0.36770087480545044,0.9953662157058716
1665946290485533000,47.51253295898437,0.2460433840751648,-0.38374799489974976,1.1564528942108154
1665946290495614000,47.52261401367188,0.25254857540130615,-0.4808882474899292,1.3098045587539673
1665946290505696000,47.53269604492188,0.2748054265975952,-0.6533184051513672,1.4341031312942505
1665946290515778000,47.54277807617188,0.33735066652297974,-0.8405237793922424,1.532222032546997
1665946290525859000,47.552859130859375,0.39297211170196533,-0.8942045569419861,1.4958341121673584
1665946290535941000,47.562941162109375,0.44008126854896545,-0.9810949563980103,1.3835527896881104
1665946290546022100,47.57302221679687,0.4037504196166992,-1.0355485677719116,1.2307997941970825
1665946290556104200,47.58310424804687,0.2989647090435028,-0.9977793097496033,1.0691661834716797
1665946290566186200,47.59318627929687,0.17165231704711914,-0.9292252659797668,0.8607575297355652
1665946290576268300,47.60326831054687,0.09132415801286697,-0.8801262378692627,0.6044588685035706
1665946290586349000,47.61334912109375,0.011094833724200726,-0.8042905926704407,0.36187684535980225
1665946290596431000,47.62343115234375,-0.07681731134653091,-0.7654269337654114,0.20410892367362976
1665946290606513000,47.63351293945313,-0.12006304413080215,-0.7637971043586731,0.1702934354543686
1665946290616594200,47.64359423828125,-0.08329746872186661,-0.9139935374259949,0.2632750868797302
1665946290626676000,47.653676025390624,0.01843181997537613,-1.091827154159546,0.4060274362564087
1665946290636758000,47.663758056640624,0.08458609133958817,-1.1570605039596558,0.49874308705329895
1665946290646839000,47.67383911132813,0.09020296484231949,-1.0904678106307983,0.4719351530075073
1665946290656921000,47.68392114257812,0.028323065489530563,-0.7664967775344849,-0.014930173754692078
1665946290667003100,47.69400317382812,-0.12185791879892349,-0.47870972752571106,-0.2317463755607605
1665946290677084200,47.704084228515626,-0.27290454506874084,-0.2898387610912323,-0.13278523087501526
1665946290687166200,47.714166259765626,-0.24039717018604279,-0.3723786473274231,0.015599981881678104
1665946290697248300,47.72424829101563,-0.1693136990070343,-0.441444456577301,0.20627212524414062
1665946290707329000,47.7343291015625,-0.12110542505979538,-0.3316950500011444,0.32221388816833496
1665946290717411000,47.7444111328125,-0.03299555554986,-0.2744469940662384,0.2954283356666565
1665946290727493000,47.7544931640625,0.036244768649339676,-0.2007106989622116,0.16177387535572052
1665946290737574100,47.76457421875,0.003951449878513813,-0.055314745754003525,-0.04956235736608505
1665946290747656200,47.77465625,-0.04603741690516472,0.12050288915634155,-0.23741082847118378
1665946290757738200,47.78473828125,-0.05799676477909088,0.19594596326351166,-0.2826671898365021
1665946290767819300,47.7948193359375,-0.040869977325201035,0.0869787335395813,-0.18633638322353363
1665946290777901000,47.804901123046875,-0.0473715215921402,-0.029003581032156944,-0.05224933475255966
1665946290787983000,47.814983154296876,-0.09574916958808899,-0.05972820520401001,0.010977840051054955
1665946290798064000,47.82506420898437,-0.16776113212108612,-0.0006687315180897713,-0.007265893742442131
1665946290808146000,47.83514599609375,-0.21926800906658173,0.0651792585849762,-0.07498075813055038
1665946290818228000,47.84522802734375,-0.24228747189044952,0.10988692194223404,-0.17704319953918457
1665946290828309000,47.85530908203125,-0.25184983015060425,0.15601606667041779,-0.2715795636177063
1665946290838391000,47.86539111328125,-0.2522463798522949,0.2100486308336258,-0.3274974226951599
1665946290848473000,47.87547314453125,-0.26434779167175293,0.2240280956029892,-0.34842267632484436
1665946290858555100,47.88555517578125,-0.2817216217517853,0.24776865541934967,-0.35724708437919617
1665946290868636200,47.89563623046875,-0.28325533866882324,0.2631678581237793,-0.3529559075832367
1665946290878718200,47.90571826171875,-0.2852218449115753,0.2934843599796295,-0.37033310532569885
1665946290888800300,47.91580029296875,-0.27487999200820923,0.3320019245147705,-0.4155330955982208
1665946290898881300,47.92588134765625,-0.2786707580089569,0.3789951801300049,-0.4485408663749695
1665946290908963300,47.93596337890625,-0.29425397515296936,0.4256654679775238,-0.43968984484672546
1665946290919045000,47.94604516601562,-0.30209383368492126,0.41559380292892456,-0.3992363214492798
1665946290929126100,47.956126220703126,-0.29699867963790894,0.4138931334018707,-0.3231058716773987
1665946290939208000,47.9662080078125,-0.28334859013557434,0.40632107853889465,-0.21617154777050018
1665946290949290000,47.9762900390625,-0.26326435804367065,0.37905511260032654,-0.09410422295331955
1665946290959371000,47.98637109375,-0.22582559287548065,0.3346812427043915,0.01856304705142975
1665946290969453800,47.996453857421876,-0.18274043500423431,0.2572146952152252,0.1039290726184845
1665946290979536000,48.00653588867188,-0.15897199511528015,0.18850986659526825,0.13247281312942505
1665946290989618000,48.01661791992188,-0.1529572457075119,0.1821049600839615,0.10042140632867813
1665946290999698700,48.02669873046875,-0.15770724415779114,0.235557422041893,0.02112000435590744
1665946291009780700,48.03678076171875,-0.1548539251089096,0.2982772886753082,-0.06673581153154373
1665946291019862500,48.04686254882812,-0.16193759441375732,0.34897875785827637,-0.12387453764677048
1665946291029943800,48.05694384765625,-0.16518239676952362,0.38956159353256226,-0.15222468972206116
1665946291040025600,48.06702563476563,-0.16648435592651367,0.4191807210445404,-0.1526697278022766
1665946291050107600,48.07710766601563,-0.1650020331144333,0.4420178532600403,-0.14883051812648773
1665946291060188700,48.087188720703125,-0.1615350842475891,0.46345096826553345,-0.1344410926103592
1665946291070270700,48.097270751953126,-0.1481521725654602,0.4724314212799072,-0.11598005890846252
1665946291080352800,48.107352783203126,-0.14474350214004517,0.4373675286769867,-0.09112238138914108
1665946291090434800,48.11743481445313,-0.148546501994133,0.3920687437057495,-0.05289509892463684
1665946291100515800,48.12751586914062,-0.14439280331134796,0.32871004939079285,-0.007049141451716423
1665946291110598000,48.137597900390624,-0.12188296765089035,0.24839499592781067,0.04037536680698395
1665946291120680000,48.147679931640624,-0.11243121325969696,0.20390452444553375,0.08474556356668472
1665946291130760700,48.1577607421875,-0.1131364181637764,0.170171856880188,0.12737610936164856
1665946291140842800,48.1678427734375,-0.11174316704273224,0.13160447776317596,0.15150026977062225
1665946291150924800,48.1779248046875,-0.10189773142337799,0.09228449314832687,0.13400383293628693
1665946291161005800,48.188005859375,-0.08894314616918564,0.074397511780262,0.0787150114774704
1665946291171087600,48.198087646484375,-0.07605477422475815,0.06831298768520355,0.014138416387140751
1665946291181169700,48.208169677734375,-0.06048433855175972,0.0704035684466362,-0.04698139429092407
1665946291191251700,48.218251708984376,-0.04279908910393715,0.06966640800237656,-0.10294932872056961
1665946291201332700,48.22833276367187,-0.03671584650874138,0.05893819034099579,-0.13763922452926636
1665946291211414800,48.23841479492187,-0.04761803150177002,0.06053156033158302,-0.14986179769039154
1665946291221496800,48.24849682617187,-0.05707336589694023,0.05552655830979347,-0.157962828874588
1665946291231577600,48.25857763671875,-0.06395871192216873,0.04484675079584122,-0.16345533728599548
1665946291241659600,48.26865966796875,-0.0680670514702797,0.056507695466279984,-0.17509213089942932
1665946291251741700,48.27874169921875,-0.07375901937484741,0.09093891084194183,-0.17871643602848053
1665946291261823700,48.28882373046875,-0.08109761774539948,0.11460807174444199,-0.17697153985500336
1665946291271904800,48.29890478515625,-0.0776195302605629,0.13454103469848633,-0.13894931972026825
1665946291281986800,48.30898681640625,-0.08901319652795792,0.1387585997581482,-0.07665141671895981
1665946291292068600,48.319068603515625,-0.08467251062393188,0.12873606383800507,-0.013546743430197239
1665946291302150000,48.32914990234375,-0.06448721885681152,0.1231137290596962,0.034698113799095154
1665946291312231700,48.33923168945312,-0.051952511072158813,0.12851010262966156,0.04112831503152847
1665946291322313700,48.34931372070312,-0.0413769967854023,0.13718631863594055,0.026421088725328445
1665946291332395800,48.35939575195312,-0.03465331345796585,0.15640847384929657,0.02162819728255272
1665946291342476800,48.36947680664063,-0.03671776130795479,0.13508056104183197,0.08182584494352341
1665946291352558800,48.37955883789063,-0.05254705622792244,0.071147121489048,0.12870627641677856
1665946291362641000,48.38964086914063,-0.04063083231449127,0.011618958786129951,0.1217745989561081
1665946291372721700,48.3997216796875,-0.044636763632297516,0.009035958908498287,0.07855521887540817
1665946291382803700,48.4098037109375,-0.047330260276794434,0.024730129167437553,0.02664949931204319
1665946291392885800,48.4198857421875,-0.07979658991098404,0.03861105814576149,-0.0289011113345623
1665946291402967800,48.4299677734375,-0.12144610285758972,0.037648364901542664,-0.0844421237707138
1665946291413048800,48.440048828125,-0.13611692190170288,0.003772958181798458,-0.11291797459125519
1665946291423130600,48.45013061523437,-0.13666127622127533,-0.035295628011226654,-0.1295434832572937
