time,seconds_elapsed,z,y,x
1665946242986054700,0.0130546875,0.05871790647506714,-0.1173122450709343,-0.20953325927257538
1665946242996135700,0.0231357421875,0.061153899878263474,-0.11889070272445679,-0.12218929082155228
1665946243006217700,0.0332177734375,0.05553995817899704,-0.16119927167892456,-0.0005001416429877281
1665946243016299800,0.0432998046875,0.049251437187194824,-0.21563296020030975,0.13218946754932404
1665946243026381800,0.0533818359375,0.03863687440752983,-0.2714464068412781,0.2228008508682251
1665946243036462800,0.063462890625,0.034259434789419174,-0.32830119132995605,0.2517174482345581
1665946243046545000,0.073544921875,0.00038935415796004236,-0.5050565004348755,0.22501234710216522
1665946243056626700,0.083626708984375,0.06633161753416061,-0.2620140314102173,0.24529524147510529
1665946243066708700,0.093708740234375,0.03370390087366104,-0.23495471477508545,0.17944006621837616
1665946243076789800,0.103789794921875,0.020014986395835876,-0.15894916653633118,0.09692388027906418
1665946243086871600,0.11387158203125,0.046551257371902466,-0.19988621771335602,0.03178988769650459
1665946243096953600,0.12395361328125,0.0854208916425705,-0.23607751727104187,0.0006988134700804949
1665946243107035600,0.13403564453125,0.1120154857635498,-0.2791714370250702,0.012821788899600506
1665946243117116700,0.14411669921875,0.13793736696243286,-0.31231021881103516,0.08065702766180038
1665946243127198700,0.15419873046875,0.162193164229393,-0.3374435603618622,0.18271681666374207
1665946243137280800,0.16428076171875,0.16020432114601135,-0.38031190633773804,0.274954617023468
1665946243147362800,0.17436279296875,0.13927453756332397,-0.458059161901474,0.36614975333213806
1665946243157444600,0.184444580078125,0.11403708904981613,-0.4371059536933899,0.40906739234924316
1665946243167526000,0.19452587890625,0.07574962079524994,-0.3096771538257599,0.3573016822338104
1665946243177607700,0.204607666015625,0.03490498661994934,-0.22557133436203003,0.21445849537849426
1665946243187689700,0.214689697265625,0.043302200734615326,-0.1681400090456009,0.08609520643949509
1665946243197771800,0.224771728515625,0.10703244060277939,-0.08837433904409409,0.024513598531484604
1665946243207852800,0.234852783203125,0.13142140209674835,-0.060511548072099686,0.03026522696018219
1665946243217934800,0.244934814453125,0.08596763759851456,-0.03868747502565384,0.06895642727613449
1665946243228017000,0.255016845703125,0.0794367715716362,0.010802047327160835,0.09193871170282364
1665946243238098700,0.2650986328125,0.06036746874451637,0.04855155572295189,0.04000307619571686
1665946243248179700,0.2751796875,0.04730013757944107,0.055923186242580414,-0.05229995772242546
1665946243258261800,0.28526171875,0.06516808271408081,0.07273279130458832,-0.15354081988334656
1665946243268343800,0.29534375,0.08975785225629807,-0.02136228047311306,-0.23108221590518951
1665946243278425600,0.305425537109375,0.16686488687992096,-0.22874689102172852,-0.33749547600746155
1665946243288506600,0.315506591796875,0.275481641292572,-0.35155004262924194,-0.4652116298675537
1665946243298588700,0.325588623046875,0.385841429233551,-0.18739520013332367,-0.5924907326698303
1665946243308670700,0.335670654296875,0.3792961835861206,-0.030472422018647194,-0.6762136220932007
1665946243318752800,0.345752685546875,0.33899882435798645,0.03825817257165909,-0.6783502697944641
1665946243328834800,0.355834716796875,0.3160974979400635,0.012294217012822628,-0.5958516597747803
1665946243338915800,0.365915771484375,0.32699277997016907,-0.021624336019158363,-0.473223477602005
1665946243348998000,0.375997802734375,0.3540496826171875,-0.01876836083829403,-0.39947202801704407
1665946243359080000,0.386079833984375,0.38847023248672485,-0.016587499529123306,-0.3875599801540375
1665946243369161700,0.39616162109375,0.39939799904823303,0.021217137575149536,-0.33451247215270996
1665946243379242800,0.40624267578125,0.39363518357276917,0.15000468492507935,-0.16999197006225586
1665946243389324500,0.416324462890625,0.3519015908241272,0.4419185519218445,-0.0038157771341502666
1665946243399406600,0.426406494140625,0.3847929537296295,0.6494078040122986,0.09949596226215363
1665946243409488600,0.436488525390625,0.5471422076225281,0.7782262563705444,0.16986839473247528
1665946243419569700,0.446569580078125,0.8337278962135315,0.7756523489952087,0.1939162164926529
1665946243429651700,0.456651611328125,0.8749917149543762,0.6650890707969666,0.1745864599943161
1665946243439733800,0.466733642578125,0.6976991891860962,0.40152478218078613,0.1059996709227562
1665946243449815800,0.47681591796875,0.4138432443141937,0.13907772302627563,-0.025414014235138893
1665946243459896800,0.486896728515625,0.1490110456943512,-0.010577542707324028,-0.19305041432380676
1665946243469979000,0.496978759765625,-0.06318296492099762,-0.12102362513542175,-0.3407037854194641
1665946243480061000,0.50706103515625,-0.20917318761348724,-0.29908257722854614,-0.47246554493904114
1665946243490142700,0.517142822265625,-0.2772880494594574,-0.4963378608226776,-0.6528638005256653
1665946243500224800,0.527224853515625,-0.39960092306137085,0.05141019448637962,-0.6555549502372742
1665946243510305500,0.537305419921875,-0.6694497466087341,1.0482500791549683,0.042933352291584015
1665946243520387600,0.5473876953125,-0.8045231103897095,0.4794880449771881,0.20506739616394043
1665946243530469600,0.5574697265625,-0.956823468208313,0.4610893130302429,0.6352502107620239
1665946243540551700,0.5675517578125,-1.0344165563583374,0.3701775372028351,0.9714260697364807
1665946243550632700,0.5776328125,-1.080336093902588,0.07230322808027267,1.10282564163208
1665946243560714800,0.58771484375,-1.0578334331512451,-0.41225466132164,1.1105093955993652
1665946243570796800,0.597796875,-1.1029270887374878,-0.8978211283683777,0.9932836890220642
1665946243580878800,0.60787890625,-1.1345207691192627,-1.2617031335830688,0.8416278958320618
1665946243590959900,0.6179599609375,-1.0794156789779663,-1.4623308181762695,0.7208447456359863
1665946243601042000,0.6280419921875,-0.9108434319496155,-1.2746493816375732,0.623150110244751
1665946243611123700,0.638123779296875,-0.2240069955587387,-0.6010205745697021,0.42559683322906494
1665946243621205800,0.648205810546875,0.3979886472225189,-0.29178550839424133,0.06563253700733185
1665946243631286500,0.65828662109375,0.3013004660606384,-0.4001849591732025,-0.2392951399087906
1665946243641368600,0.66836865234375,0.12445803731679916,-0.5444188117980957,-0.39639607071876526
1665946243651450600,0.67845068359375,0.079246886074543,-0.4692029058933258,-0.40150827169418335
1665946243661532700,0.68853271484375,0.09236641228199005,-0.4565576910972595,-0.3794780671596527
1665946243671614700,0.69861474609375,0.12269369512796402,-0.6030831933021545,-0.32674989104270935
1665946243681695700,0.70869580078125,0.14362800121307373,-0.8090291619300842,-0.2278536707162857
1665946243691777800,0.71877783203125,0.14407621324062347,-0.992988109588623,-0.10886070132255554
1665946243701859800,0.72885986328125,0.14735722541809082,-1.0766257047653198,0.001401089015416801
1665946243711941600,0.738941650390625,0.2095702737569809,-1.0724642276763916,0.07692567259073257
1665946243722022700,0.749022705078125,0.278620183467865,-0.9990997910499573,0.0736640989780426
1665946243732104700,0.759104736328125,0.2962508499622345,-0.827795684337616,0.011543205007910728
1665946243742186800,0.769186767578125,0.2397145926952362,-0.5525462627410889,-0.06621497124433517
1665946243752268800,0.779268798828125,0.17470256984233856,-0.16225920617580414,-0.13000060617923737
1665946243762349800,0.789349853515625,0.13205017149448395,0.15430621802806854,-0.17098292708396912
1665946243772432000,0.799431884765625,0.10131809860467911,0.3733682632446289,-0.1836254894733429
1665946243782514000,0.809513916015625,0.08262377232313156,0.5063436031341553,-0.1757449358701706
1665946243792595700,0.819595703125,0.0657622367143631,0.5199385285377502,-0.15300552546977997
1665946243802677500,0.829677490234375,0.06286711245775223,0.4836502969264984,-0.09876865148544312
1665946243812758500,0.839758544921875,0.05132204294204712,0.4186638295650482,-0.03603949397802353
1665946243822840600,0.849840576171875,0.059359464794397354,0.3195931911468506,0.027170900255441666
1665946243832922400,0.85992236328125,0.08295347541570663,0.12981578707695007,0.10192636400461197
1665946243843004400,0.87000439453125,0.11898551136255264,-0.043657999485731125,0.21216818690299988
1665946243853085400,0.88008544921875,0.13246962428092957,-0.11661209911108017,0.3002775311470032
1665946243863167500,0.89016748046875,0.13844336569309235,-0.1519583761692047,0.34843868017196655
1665946243873249500,0.90024951171875,0.16568483412265778,-0.037036847323179245,0.3493342995643616
1665946243883331600,0.91033154296875,0.19159473478794098,0.14271880686283112,0.2842937707901001
1665946243893412600,0.92041259765625,0.22609758377075195,0.3545469045639038,0.17138320207595825
1665946243903494700,0.93049462890625,0.27312368154525757,0.5437021851539612,0.08189060539007187
1665946243913576700,0.94057666015625,0.32341453433036804,0.6702632904052734,0.03424612060189247
1665946243923658500,0.950658447265625,0.3486650288105011,0.6759083867073059,0.05312926322221756
1665946243933740300,0.960740234375,0.32980185747146606,0.6072273850440979,0.1400175541639328
1665946243943821300,0.9708212890625,0.29247981309890747,0.5649528503417969,0.23414193093776703
1665946243953903400,0.9809033203125,0.27748405933380127,0.5522759556770325,0.2714506685733795
1665946243963985400,0.9909853515625,0.28235924243927,0.5575538277626038,0.2561558783054352
1665946243974067500,1.0010673828125,0.28249987959861755,0.6198089122772217,0.2204897701740265
1665946243984148500,1.0111484375,0.30551382899284363,0.6886905431747437,0.17132914066314697
1665946243994230500,1.02123046875,0.35557806491851807,0.7151713967323303,0.11070334166288376
1665946244004312600,1.0313125,0.40310779213905334,0.7226836681365967,0.06460083276033401
1665946244014394600,1.04139453125,0.468777596950531,0.7738056778907776,0.034026674926280975
1665946244024475600,1.0514755859375,0.5279762148857117,0.7954217791557312,-0.0044227116741240025
1665946244034557700,1.0615576171875,0.5595445036888123,0.7284592390060425,0.012544553726911545
1665946244044639500,1.071639404296875,0.5839678645133972,0.6812334060668945,0.05613197758793831
1665946244054721500,1.081721435546875,0.6088225841522217,0.672907292842865,0.07266142219305038
1665946244064803600,1.091803466796875,0.6342182159423828,0.6570545434951782,0.06135177239775658
1665946244074884400,1.10188427734375,0.638379693031311,0.661169171333313,0.07334824651479721
1665946244084966400,1.11196630859375,0.6395397782325745,0.7040053009986877,0.09014081209897995
1665946244095048400,1.12204833984375,0.6775281429290771,0.7591191530227661,0.06511694937944412
1665946244105130500,1.132130615234375,0.7347115278244019,0.8137605786323547,0.034809380769729614
1665946244115211500,1.14221142578125,0.7720205783843994,0.8543815016746521,0.049907371401786804
1665946244125293600,1.15229345703125,0.81561279296875,0.8272050023078918,0.11841346323490143
1665946244135375600,1.162375732421875,0.8628638982772827,0.7356497645378113,0.20626582205295563
1665946244145457400,1.17245751953125,0.9129318594932556,0.6491249799728394,0.27255481481552124
1665946244155538400,1.182538330078125,0.9589899182319641,0.5917102098464966,0.3163142800331116
1665946244165620500,1.192620361328125,0.9996321797370911,0.565081775188446,0.33489277958869934
1665946244175702500,1.20270263671875,1.0582767724990845,0.5777059197425842,0.3181596100330353
1665946244185784600,1.21278466796875,1.0978494882583618,0.6136852502822876,0.2801693379878998
1665946244195866600,1.22286669921875,1.1039756536483765,0.6515277028083801,0.2486494928598404
1665946244205947400,1.232947509765625,1.113366961479187,0.6631231307983398,0.22748269140720367
1665946244216029400,1.243029541015625,1.1289023160934448,0.6654400825500488,0.1999376118183136
1665946244226111500,1.253111572265625,1.1323579549789429,0.6765233278274536,0.17756280303001404
1665946244236193500,1.263193603515625,1.1235955953598022,0.6785715818405151,0.174931600689888
1665946244246274600,1.273274658203125,1.1079645156860352,0.6623308062553406,0.1824912428855896
1665946244256356400,1.2833564453125,1.1085647344589233,0.6270151734352112,0.18568624556064606
1665946244266438400,1.2934384765625,1.124876618385315,0.5823960304260254,0.1672353297472
1665946244276520400,1.3035205078125,1.1326913833618164,0.5582952499389648,0.12236879020929337
1665946244286601500,1.3136015625,1.1490799188613892,0.585706889629364,0.06064150854945183
1665946244296683500,1.32368359375,1.1475286483764648,0.6840797662734985,-0.015031945891678333
1665946244306765600,1.333765625,1.1419674158096313,0.7745425701141357,-0.06983207911252975
1665946244316847600,1.34384765625,1.1623941659927368,0.8263048529624939,-0.0625629797577858
1665946244326929700,1.3539296875,1.2105441093444824,0.8093556761741638,-0.007062437012791634
1665946244337010400,1.364010498046875,1.237540602684021,0.6817502975463867,0.10712618380784988
1665946244347092500,1.374092529296875,1.230739712715149,0.5654966831207275,0.24521268904209137
1665946244357174300,1.38417431640625,1.2347913980484009,0.4577920734882355,0.34145933389663696
1665946244367256300,1.39425634765625,1.2444789409637451,0.4127710461616516,0.38808301091194153
1665946244377337300,1.40433740234375,1.2175719738006592,0.45143988728523254,0.40146008133888245
1665946244387419400,1.41441943359375,1.1774402856826782,0.5266802906990051,0.37988021969795227
1665946244397501400,1.42450146484375,1.1568028926849365,0.512040913105011,0.3578369617462158
1665946244407583500,1.43458349609375,1.1246109008789062,0.45548468828201294,0.38587287068367004
1665946244417664500,1.44466455078125,1.0750030279159546,0.42946720123291016,0.4300336539745331
1665946244427746600,1.45474658203125,1.0674383640289307,0.40438103675842285,0.4492507576942444
1665946244437828600,1.46482861328125,1.072503924369812,0.3795151114463806,0.46691471338272095
1665946244447910700,1.47491064453125,1.0809842348098755,0.31890207529067993,0.4891718327999115
1665946244457992400,1.484992431640625,1.103948712348938,0.28266605734825134,0.5073995590209961
1665946244468073700,1.49507373046875,1.090869426727295,0.35382091999053955,0.5051012635231018
1665946244478155300,1.5051552734375,1.0677573680877686,0.46272850036621094,0.4651743471622467
1665946244488237300,1.5152373046875,1.0234615802764893,0.5727689862251282,0.37018656730651855
1665946244498319400,1.5253193359375,0.9467052817344666,0.6808578968048096,0.2623048424720764
1665946244508400400,1.535400390625,0.8659140467643738,0.8249069452285767,0.14493481814861298
1665946244518482400,1.545482421875,0.790294349193573,1.0102006196975708,0.0370245985686779
1665946244528564500,1.555564453125,0.7398674488067627,1.19054114818573,-0.06500855833292007
1665946244538646500,1.565646484375,0.7426419258117676,1.1360526084899902,-0.0928788110613823
1665946244548727600,1.5757275390625,0.7855345010757446,0.8554084300994873,0.013736851513385773
1665946244558809600,1.5858095703125,0.8411658406257629,0.3962557315826416,0.2026955932378769
1665946244568891600,1.5958916015625,0.8959728479385376,-0.16026078164577484,0.4530468285083771
1665946244578973400,1.605973388671875,0.9425662159919739,-0.715643584728241,0.6829772591590881
1665946244589055500,1.616055419921875,0.988071620464325,-1.1780977249145508,0.8546563386917114
1665946244599136500,1.626136474609375,1.067328691482544,-1.547115445137024,0.9568594098091125
1665946244609218600,1.636218505859375,1.132779836654663,-1.8411349058151245,1.0350090265274048
1665946244619300600,1.646300537109375,1.3208637237548828,-2.213944435119629,1.0288422107696533
1665946244629382400,1.65638232421875,1.6095458269119263,-2.546314001083374,1.0030585527420044
1665946244639463400,1.66646337890625,1.5477943420410156,-2.8661327362060547,0.8375982642173767
1665946244649545500,1.67654541015625,1.1961196660995483,-3.2059950828552246,0.5016612410545349
1665946244659627500,1.68662744140625,0.8442694544792175,-3.451622724533081,0.10446781665086746
1665946244669709600,1.69670947265625,0.603649914264679,-3.6954166889190674,-0.18175755441188812
1665946244679791400,1.706791259765625,0.5163009166717529,-4.499118328094482,-0.09662587195634842
1665946244689872400,1.716872314453125,0.2984743118286133,-5.5376667976379395,0.38757434487342834
1665946244699954400,1.726954345703125,-0.1694824993610382,-6.118290901184082,0.6030203700065613
1665946244710036500,1.737036376953125,-0.73454749584198,-6.769887447357178,0.5026559233665466
1665946244720118500,1.747118408203125,-1.3488463163375854,-7.512188911437988,0.3555605113506317
1665946244730199600,1.757199462890625,-1.8074527978897095,-7.794045448303223,-0.005660282447934151
1665946244740281600,1.767281494140625,-2.070704221725464,-7.859243869781494,-0.5223904848098755
1665946244750363600,1.77736376953125,-2.0967392921447754,-7.760262489318848,-0.912141740322113
1665946244760445700,1.78744580078125,-1.907681941986084,-7.484528541564941,-1.1871474981307983
1665946244770527500,1.797527587890625,-1.1808557510375977,-6.3216552734375,-1.522295594215393
1665946244780608500,1.8076083984375,0.24639113247394562,-1.4861218929290771,-2.9493491649627686
1665946244790690300,1.817690185546875,1.0230884552001953,-3.1921730041503906,-3.1762642860412598
1665946244800772400,1.8277724609375,1.6396597623825073,-4.606385707855225,-3.115320920944214
1665946244810854400,1.8378544921875,1.6420103311538696,-5.56969690322876,-2.7223012447357178
1665946244820935200,1.84793505859375,1.2295135259628296,-5.668684482574463,-2.4359495639801025
1665946244831017200,1.858017333984375,0.8664836883544922,-5.793441295623779,-2.4578394889831543
1665946244841099300,1.868099365234375,0.41785022616386414,-6.49316930770874,-2.4019534587860107
1665946244851181300,1.878181396484375,-0.34849512577056885,-5.4363555908203125,-2.2273573875427246
1665946244861262300,1.888262451171875,-2.091364622116089,-0.25816282629966736,-0.09243965148925781
1665946244871344400,1.898344482421875,-2.6986870765686035,0.42199811339378357,0.5078624486923218
1665946244881426400,1.908426513671875,-2.8864035606384277,0.45626580715179443,0.44106900691986084
1665946244891508200,1.91850830078125,-2.80401349067688,-0.19376574456691742,0.3816549479961395
1665946244901589500,1.928589599609375,-2.4629244804382324,-0.9412927031517029,0.5986277461051941
1665946244911671300,1.93867138671875,-1.9293595552444458,-2.506972551345825,0.9631545543670654
1665946244921753300,1.94875341796875,-1.143542766571045,-4.826222896575928,1.01218843460083
1665946244931835400,1.95883544921875,-0.46734482049942017,-6.970649719238281,1.015345811843872
1665946244941917400,1.96891748046875,-0.15198686718940735,-8.423940658569336,1.0827823877334595
1665946244951998500,1.97899853515625,-0.23267798125743866,-8.73258113861084,1.3309611082077026
1665946244962080500,1.98908056640625,-0.7678154110908508,-8.903909683227539,1.504591703414917
1665946244972162300,1.999162353515625,-1.514236330986023,-10.207942008972168,1.592524766921997
1665946244982244400,2.009244384765625,-1.8316625356674194,-12.340204238891602,1.83805513381958
1665946244992325400,2.019325439453125,-1.8786870241165161,-13.621712684631348,2.2671730518341064
1665946245002407400,2.029407470703125,-2.161040782928467,-12.884444236755371,2.800361156463623
1665946245012489200,2.0394892578125,-2.925694465637207,-10.20824146270752,3.1928787231445312
1665946245022571300,2.0495712890625,-4.040101051330566,-6.890279293060303,2.5931732654571533
1665946245032653300,2.0596533203125,-4.621557235717773,-3.0729262828826904,1.097913146018982
1665946245042734300,2.069734375,-4.227035999298096,0.7095627784729004,-0.2411460429430008
1665946245052816400,2.07981640625,-3.227323293685913,3.789862871170044,-1.2513208389282227
1665946245062898400,2.0898984375,-2.3200175762176514,6.104440689086914,-2.188178300857544
1665946245072980500,2.09998046875,-1.8846157789230347,6.626894950866699,-2.7119064331054688
1665946245083061500,2.1100615234375,-1.8462313413619995,5.7073588371276855,-3.0616884231567383
1665946245093143600,2.1201435546875,-2.0030553340911865,2.976301670074463,-3.1484527587890625
1665946245103225300,2.130225341796875,-2.0327908992767334,-0.6089693307876587,-3.3342700004577637
1665946245113307400,2.140307373046875,-2.1531877517700195,-3.431262254714966,-3.704714059829712
1665946245123389400,2.150389404296875,-2.327130079269409,-4.224908351898193,-3.960768461227417
1665946245133470200,2.16047021484375,-2.529148578643799,-3.236192464828491,-3.8237640857696533
1665946245143552300,2.17055224609375,-2.4447226524353027,-1.5941256284713745,-3.3509304523468018
1665946245153634300,2.18063427734375,-2.012209415435791,-0.5013917088508606,-3.0683887004852295
1665946245163716400,2.19071630859375,-0.9653945565223694,0.1325250267982483,-3.418468952178955
1665946245173797400,2.20079736328125,1.0844740867614746,0.8679319024085999,-4.537829399108887
1665946245183879400,2.21087939453125,2.5472025871276855,1.911115288734436,-6.114394187927246
1665946245193961500,2.22096142578125,3.045167922973633,3.133340835571289,-6.752111911773682
1665946245204043300,2.231043212890625,3.0564627647399902,4.037154674530029,-6.448086261749268
1665946245214124500,2.24112451171875,2.7884747982025146,3.5397024154663086,-5.6174726486206055
1665946245224206300,2.251206298828125,2.261615753173828,2.192523956298828,-4.410090446472168
1665946245234288400,2.261288330078125,1.532969355583191,0.8459834456443787,-3.011026382446289
1665946245244370400,2.271370361328125,0.13036972284317017,-0.5677318572998047,-1.1042778491973877
1665946245254451200,2.281451171875,-1.087059736251831,-3.1179349422454834,0.5829547643661499
1665946245264533200,2.291533203125,-0.9895299673080444,-4.952866077423096,1.3168476819992065
1665946245274615300,2.301615234375,-0.3048083782196045,-4.708241939544678,1.7225818634033203
1665946245284697300,2.311697265625,0.1338142603635788,-3.7317659854888916,1.5576845407485962
1665946245294779400,2.321779296875,0.3331153690814972,-2.521450996398926,1.1017510890960693
1665946245304860400,2.3318603515625,0.37606072425842285,-1.2503621578216553,0.8037103414535522
1665946245314942500,2.3419423828125,0.30457934737205505,-0.7339786291122437,0.3979007601737976
1665946245325024300,2.352024169921875,0.021441908553242683,-0.7107976675033569,-0.13318122923374176
1665946245335106300,2.362106201171875,-0.2905908226966858,-0.3015747666358948,-0.41224560141563416
1665946245345187300,2.372187255859375,-0.5744539499282837,0.2629847526550293,-0.4655629098415375
1665946245355269400,2.382269287109375,-0.7661222219467163,0.7247316241264343,-0.34298717975616455
1665946245365351400,2.392351318359375,-0.7838535308837891,1.0494260787963867,-0.051171839237213135
1665946245375433500,2.40243359375,-0.802234947681427,0.8984227180480957,0.2371819168329239
1665946245385515500,2.412515625,-0.673499345779419,0.8111682534217834,0.49315696954727173
1665946245395596300,2.42259619140625,-0.5004668235778809,0.533402144908905,0.7259033918380737
1665946245405678300,2.43267822265625,-0.1118285283446312,0.039979107677936554,0.9128565192222595
1665946245415760400,2.442760498046875,0.2677494287490845,-0.3749099671840668,1.0016995668411255
1665946245425842200,2.45284228515625,0.7870644927024841,-0.5265447497367859,1.0062687397003174
1665946245435923500,2.46292333984375,1.346717119216919,-0.39689889550209045,0.8592292666435242
1665946245446005200,2.473005126953125,1.8099838495254517,-0.1419163942337036,0.5996367931365967
1665946245456087300,2.48308740234375,2.0797970294952393,0.10303077846765518,0.3650498688220978
1665946245466169300,2.49316943359375,2.134847402572632,0.31388893723487854,0.2434280961751938
1665946245476251400,2.50325146484375,2.0050101280212402,0.3011001944541931,0.18754513561725616
1665946245486332400,2.51333251953125,1.853286862373352,0.25055044889450073,0.23628337681293488
1665946245496414500,2.52341455078125,1.6960810422897339,0.3950067162513733,0.44242188334465027
1665946245506496500,2.53349658203125,1.562178611755371,0.7538689970970154,0.7131229043006897
1665946245516578600,2.54357861328125,1.5323325395584106,1.20675528049469,0.8873809576034546
1665946245526659300,2.553659423828125,1.5447654724121094,1.673896074295044,1.012113332748413
1665946245536741400,2.563741455078125,1.527360439300537,2.004251718521118,1.0964239835739136
1665946245546823200,2.5738232421875,1.4303628206253052,2.1152923107147217,1.1338762044906616
1665946245556905200,2.5839052734375,1.237762451171875,2.067983627319336,1.2062386274337769
1665946245566987300,2.5939873046875,0.49558764696121216,1.2969086170196533,1.0535483360290527
1665946245577068300,2.604068359375,-5.000805854797363,-0.23734544217586517,0.2181834727525711
1665946245587150300,2.614150390625,-7.537271499633789,1.0095902681350708,0.7179061770439148
1665946245597232400,2.624232421875,-7.351675510406494,1.072036862373352,0.5824298858642578
1665946245607314400,2.634314453125,-5.519041061401367,1.616506576538086,0.4151979982852936
1665946245617395500,2.6443955078125,-3.5631885528564453,1.7742458581924438,0.2415923774242401
1665946245627477500,2.6544775390625,-2.194589853286743,3.253304958343506,0.6101562976837158
1665946245637559300,2.664559326171875,-1.5800135135650635,3.5011191368103027,0.9005836248397827
1665946245647641300,2.674641357421875,-0.9005321860313416,3.406282901763916,0.9782520532608032
1665946245657723400,2.684723388671875,-0.345488965511322,3.2672336101531982,0.4966161549091339
1665946245667804400,2.694804443359375,0.17424583435058594,3.0555756092071533,-0.5997963547706604
1665946245677886200,2.70488623046875,0.4692060947418213,2.9100921154022217,-1.3297221660614014
1665946245687968300,2.71496826171875,0.37710654735565186,2.422776222229004,-1.5635381937026978
1665946245698050300,2.72505029296875,0.20093044638633728,2.1066529750823975,-1.4483740329742432
1665946245708131300,2.73513134765625,0.2530021667480469,2.0796971321105957,-1.2732511758804321
1665946245718213400,2.74521337890625,0.22432604432106018,2.3629283905029297,-1.2039943933486938
1665946245728295400,2.75529541015625,0.20463436841964722,2.1288084983825684,-1.0089364051818848
1665946245738377200,2.765377197265625,0.1713741421699524,0.9669501185417175,-0.6583142280578613
1665946245748459300,2.775459228515625,0.21154606342315674,0.7510910630226135,0.07883356511592865
1665946245758540300,2.785540283203125,0.18616162240505219,0.39480751752853394,0.7220228910446167
1665946245768622300,2.795622314453125,0.13206376135349274,0.262035071849823,1.2207964658737183
1665946245778704400,2.805704345703125,0.07444946467876434,0.4115214943885803,1.39939284324646
1665946245788786400,2.815786376953125,0.04063291475176811,0.9867587089538574,1.776782751083374
1665946245798867500,2.825867431640625,0.3313286602497101,1.6341867446899414,1.806151270866394
1665946245808948700,2.83594873046875,0.653033435344696,1.802268147468567,1.1455419063568115
1665946245819030800,2.84603076171875,0.8627568483352661,1.5917353630065918,0.19049537181854248
1665946245829112800,2.85611279296875,1.1291747093200684,3.16607666015625,0.7614613771438599
1665946245839195000,2.86619482421875,2.0167887210845947,4.172126293182373,3.1096553802490234
1665946245849276000,2.87627587890625,2.274801254272461,1.692507028579712,3.4875781536102295
1665946245859358000,2.88635791015625,1.9740383625030518,0.7680655121803284,3.2282660007476807
1665946245869439700,2.896439697265625,1.3995246887207031,0.40422365069389343,1.3430427312850952
1665946245879521800,2.906521728515625,0.9646685719490051,1.5093694925308228,0.08194972574710846
1665946245889602800,2.916602783203125,0.7587519288063049,2.027744770050049,-0.054905325174331665
1665946245899684900,2.926684814453125,0.5398741364479065,2.0654618740081787,0.20646502077579498
1665946245909767000,2.936766845703125,0.10708677023649216,2.01505184173584,-0.43270429968833923
1665946245919849000,2.946848876953125,-0.3744833171367645,2.065122365951538,-0.9448389410972595
1665946245929931000,2.956930908203125,-0.8227766752243042,2.00125789642334,-1.068756103515625
1665946245940012000,2.967011962890625,-1.0961920022964478,1.83944833278656,-0.9656091928482056
1665946245950093800,2.97709375,-0.7987352609634399,1.5490952730178833,-0.8442779779434204
1665946245960175900,2.98717578125,-0.26528358459472656,1.4411717653274536,-0.8789203763008118
1665946245970257700,2.997257568359375,0.013983992859721184,1.078229546546936,-0.5492284893989563
1665946245980338700,3.007338623046875,0.02882765419781208,0.5026096105575562,-0.06892873346805573
1665946245990420700,3.017420654296875,-0.10941038280725479,0.0002162486780434847,0.0194272268563509
1665946246000502800,3.027502685546875,-0.3373543322086334,-0.027354126796126366,-0.43087947368621826
1665946246010584800,3.037584716796875,-0.6768085360527039,0.4643636643886566,-0.9788603186607361
1665946246020667000,3.0476669921875,-0.9032824635505676,0.6592761874198914,-1.5715217590332031
1665946246030748000,3.057747802734375,-1.0587495565414429,1.2572664022445679,-2.0738725662231445
1665946246040830000,3.067829833984375,-1.263397455215454,1.7878159284591675,-2.1273717880249023
1665946246050912000,3.077912109375,-0.8291395306587219,1.6350607872009277,-2.175306558609009
1665946246060993800,3.087993896484375,0.01317918486893177,1.0434454679489136,-1.9918279647827148
1665946246071075800,3.098075927734375,0.8393213152885437,0.3448844254016876,-1.6163326501846313
1665946246081156900,3.108156982421875,1.7225695848464966,-0.045881737023591995,-0.9774288535118103
1665946246091239000,3.118239013671875,2.57234787940979,-0.40618985891342163,-0.07969029992818832
1665946246101321000,3.128321044921875,4.166950225830078,0.3946485221385956,1.8557958602905273
1665946246111402800,3.13840283203125,5.31451416015625,-1.1372355222702026,2.0397236347198486
1665946246121483800,3.14848388671875,5.384040355682373,-2.192965507507324,2.6342883110046387
1665946246131565800,3.15856591796875,3.655545711517334,-1.904340147972107,3.021404981613159
1665946246141648000,3.16864794921875,2.4520514011383057,-0.7815679907798767,2.6395556926727295
1665946246151730000,3.17872998046875,3.2347214221954346,-1.1753551959991455,2.315922260284424
1665946246161811700,3.188811767578125,2.826348066329956,-0.42879822850227356,1.9631041288375854
1665946246171893000,3.19889306640625,2.573880195617676,-0.0596257783472538,1.4131898880004883
1665946246181974800,3.208974853515625,2.360718011856079,-0.18538238108158112,0.9917683601379395
1665946246192056800,3.219056884765625,1.5219166278839111,-0.6832912564277649,1.0401731729507446
1665946246202139000,3.229138916015625,-0.9425464868545532,-1.0909993648529053,1.2423462867736816
1665946246212220000,3.239219970703125,-4.861664295196533,0.8119378685951233,1.859478235244751
1665946246222302000,3.249302001953125,-5.650082588195801,2.9361629486083984,0.2529821991920471
1665946246232384000,3.259384033203125,-4.0823140144348145,3.7333173751831055,-1.5258158445358276
1665946246242466000,3.269466064453125,-1.5664931535720825,4.756572723388672,-1.8491361141204834
1665946246252548000,3.279548095703125,-0.11516227573156357,3.419576406478882,-1.4188635349273682
1665946246262628900,3.28962890625,-0.1703869104385376,0.5607749223709106,-0.17668582499027252
1665946246272711000,3.2997109375,-0.5190863013267517,-2.357978343963623,1.1007933616638184
1665946246282792700,3.309792724609375,-0.5694637298583984,-4.199392318725586,2.016594886779785
1665946246292874800,3.319874755859375,-0.4260391891002655,-4.400070667266846,2.1900930404663086
1665946246302956800,3.329956787109375,-0.19078566133975983,-3.161635637283325,1.6191664934158325
1665946246313037800,3.340037841796875,-0.1554660201072693,-1.4001423120498657,0.7058926820755005
1665946246323119900,3.350119873046875,-0.20755451917648315,0.4160579442977905,0.13519804179668427
1665946246333202000,3.360201904296875,-0.5444915294647217,1.583865761756897,-0.14894260466098785
1665946246343284000,3.370283935546875,-0.9267821907997131,1.9643715620040894,-0.11890481412410736
1665946246353365000,3.380364990234375,-1.1915371417999268,1.4824414253234863,0.29156261682510376
1665946246363447000,3.390447021484375,-1.1877357959747314,0.6375488042831421,1.1662437915802002
1665946246373528800,3.40052880859375,-1.3289477825164795,-0.22295691072940826,2.0674636363983154
1665946246383611000,3.41061083984375,-1.5701366662979126,-0.3537498116493225,2.86149263381958
1665946246393693000,3.42069287109375,-1.62795889377594,-0.4597233831882477,3.314939022064209
1665946246403773700,3.430773681640625,-1.1595746278762817,-1.5675020217895508,3.370016098022461
1665946246413855700,3.440855712890625,-0.7624411582946777,-2.588397264480591,3.689171552658081
1665946246423937800,3.450937744140625,1.6501984596252441,-3.0122766494750977,3.174039840698242
1665946246434019800,3.461019775390625,3.9452481269836426,-2.885028839111328,3.3201608657836914
1665946246444102000,3.471101806640625,4.84990930557251,-3.849832773208618,3.815293550491333
1665946246454183000,3.481182861328125,-0.3871583640575409,-3.898073673248291,2.2754087448120117
1665946246464265000,3.491264892578125,-3.2495687007904053,-1.7582954168319702,0.8160886764526367
1665946246474346800,3.5013466796875,-2.4200797080993652,-0.782663106918335,-0.29738667607307434
1665946246484428800,3.5114287109375,-0.6051356792449951,0.17378191649913788,-0.8744534850120544
1665946246494510800,3.5215107421875,0.21061156690120697,0.11820147186517715,-0.2807174026966095
1665946246504592000,3.531591796875,0.5894502401351929,-0.0713609978556633,0.6452255845069885
1665946246514674000,3.541673828125,1.1494392156600952,0.18933610618114471,0.8539029359817505
1665946246524756000,3.551755859375,1.32445228099823,0.4339517056941986,0.37324443459510803
1665946246534838000,3.561838134765625,0.7120038270950317,0.4355219006538391,-0.42664027214050293
1665946246544920000,3.571920166015625,-0.20430892705917358,0.6339487433433533,-0.9532827734947205
1665946246555000800,3.582000732421875,-1.0884333848953247,0.612983226776123,-1.3105183839797974
1665946246565083000,3.592082763671875,-1.8571377992630005,0.657886266708374,-1.5154441595077515
1665946246575164700,3.60216455078125,-2.1916418075561523,1.5474214553833008,-1.493452548980713
1665946246585246700,3.612246826171875,-2.5819945335388184,2.5016698837280273,-1.6567280292510986
1665946246595328800,3.622328857421875,-2.738792657852173,1.710821270942688,-1.1652634143829346
1665946246605409800,3.632409912109375,-2.3670754432678223,1.3559786081314087,-0.6706806421279907
1665946246615491800,3.642491943359375,-1.8819634914398193,0.8825737237930298,-0.32819998264312744
1665946246625574000,3.652573974609375,-1.6646703481674194,0.5922446846961975,0.03722912818193436
1665946246635656000,3.662656005859375,-1.7609654664993286,0.3578406870365143,0.3010959327220917
1665946246645738000,3.672738037109375,-1.8288283348083496,0.3770380914211273,0.18644124269485474
1665946246655819000,3.682819091796875,-1.8190109729766846,0.405643105506897,-0.13705186545848846
1665946246665901000,3.692901123046875,-1.7571656703948975,0.2857973873615265,-0.2403942346572876
1665946246675982800,3.70298291015625,-1.326896071434021,-0.04442605376243591,-0.14916019141674042
1665946246686065000,3.71306494140625,-0.5625720024108887,-0.7879167199134827,0.15757444500923157
1665946246696147000,3.72314697265625,0.37599945068359375,-0.9761713147163391,0.24350187182426453
1665946246706227700,3.733227783203125,0.6501843929290771,-1.1976109743118286,0.10905564576387405
1665946246716309800,3.743309814453125,0.27363741397857666,-1.2010550498962402,-0.2595553994178772
1665946246726391800,3.753391845703125,-0.07961919158697128,-1.689805507659912,-0.6831282377243042
1665946246736473900,3.763473876953125,-0.3118654787540436,-2.412182569503784,-1.6028248071670532
1665946246746556000,3.773555908203125,-0.34944242238998413,-2.1204049587249756,-1.9552524089813232
1665946246756637000,3.783636962890625,0.08976370841264725,-2.28511381149292,-1.8828884363174438
1665946246766719000,3.793718994140625,0.8269922137260437,-2.2050130367279053,-1.599773645401001
1665946246776800800,3.80380078125,1.5226151943206787,-2.948134660720825,-2.18734073638916
1665946246786882800,3.8138828125,1.9804072380065918,-3.3694136142730713,-3.017345666885376
1665946246796964900,3.82396484375,2.023242235183716,-3.7611515522003174,-3.6919853687286377
1665946246807046000,3.8340458984375,1.74457848072052,-3.3703835010528564,-4.1629838943481445
1665946246817128200,3.844128173828125,1.4801214933395386,-2.27211332321167,-4.109677314758301
1665946246827210200,3.854210205078125,1.0663893222808838,0.026157034561038017,-3.1774048805236816
1665946246837292300,3.864292236328125,0.6639627814292908,2.152812957763672,-1.7655341625213623
1665946246847374000,3.8743740234375,0.4279726445674896,2.6813104152679443,-0.8085077404975891
1665946246857455400,3.884455322265625,0.3214038610458374,2.4802229404449463,-0.5501150488853455
1665946246867537200,3.894537109375,0.2817544639110565,2.1488420963287354,-0.83272385597229
1665946246877619200,3.904619140625,0.19880923628807068,1.5539995431900024,-1.4019242525100708
1665946246887701200,3.914701171875,-0.024343423545360565,0.7298299670219421,-2.045530319213867
1665946246897783300,3.924783203125,-0.29990655183792114,-0.22022397816181183,-2.850313425064087
1665946246907864300,3.9348642578125,-0.5637062191963196,-0.5457211136817932,-3.270171642303467
1665946246917946400,3.9449462890625,-0.8217311501502991,-0.15323002636432648,-2.945667028427124
1665946246928028400,3.9550283203125,-0.9766693115234375,0.0753197893500328,-2.281069278717041
1665946246938110500,3.9651103515625,-1.1854605674743652,-0.03831702843308449,-1.8201017379760742
1665946246948192300,3.975192138671875,-1.3897002935409546,0.09511799365282059,-1.5308380126953125
1665946246958274000,3.985274169921875,-1.5984452962875366,0.5206828713417053,-1.2041916847229004
1665946246968355000,3.99535498046875,-1.75816011428833,0.9328693747520447,-0.8503379821777344
1665946246978437000,4.00543701171875,-1.8775255680084229,1.487561821937561,-0.5415644645690918
1665946246988519200,4.015519287109375,-1.6498442888259888,1.2177934646606445,-1.062911033630371
1665946246998601200,4.025601318359375,-2.2240653038024902,0.9174198508262634,-2.908618211746216
1665946247008683300,4.035683349609375,-3.2052183151245117,3.341374158859253,-3.991332769393921
1665946247018764300,4.045764404296875,-2.733924150466919,4.08797550201416,-3.637568712234497
1665946247028846300,4.055846435546875,-1.1587400436401367,2.3216609954833984,-2.428429365158081
1665946247038928400,4.065928466796875,0.6608127951622009,-0.8766039609909058,-1.4794485569000244
1665946247049010200,4.07601025390625,0.7008500099182129,-0.7546077370643616,-0.7362844347953796
1665946247059092200,4.08609228515625,0.8389894962310791,1.003539800643921,-0.11349460482597351
1665946247069173200,4.09617333984375,1.6732630729675293,2.4778847694396973,0.7014433145523071
1665946247079255300,4.10625537109375,1.6661680936813354,3.3378140926361084,1.2258200645446777
1665946247089337300,4.11633740234375,1.610381841659546,3.6828596591949463,1.1380866765975952
1665946247099419400,4.12641943359375,1.7483614683151245,3.012923240661621,0.7715172171592712
1665946247109501200,4.136501220703125,1.3251953125,2.3106205463409424,0.08547122776508331
1665946247119583200,4.146583251953125,1.1093746423721313,2.5538971424102783,-0.23615394532680511
1665946247129664300,4.156664306640625,1.1670666933059692,2.4000043869018555,-0.34644317626953125
1665946247139746300,4.166746337890625,1.1470637321472168,2.1587066650390625,-0.20386657118797302
1665946247149828000,4.176828125,1.1098870038986206,1.943175196647644,-0.03515053167939186
1665946247159910100,4.18691015625,1.0534125566482544,1.67726469039917,0.08769016712903976
1665946247169992200,4.1969921875,0.9953916072845459,1.3649680614471436,0.16451065242290497
1665946247180073200,4.2070732421875,0.917377233505249,1.1273176670074463,0.24600976705551147
1665946247190155300,4.2171552734375,0.8156668543815613,0.9595800638198853,0.3089005947113037
1665946247200237300,4.2272373046875,0.735447883605957,0.9715341925621033,0.39335447549819946
1665946247210319400,4.2373193359375,0.6934690475463867,1.0547443628311157,0.5058251023292542
1665946247220401400,4.2474013671875,0.7267313599586487,1.0478435754776,0.5717028975486755
1665946247230483200,4.257483154296875,0.7282584309577942,0.9634142518043518,0.5545207262039185
1665946247240564200,4.267564208984375,0.6287717819213867,0.9756940603256226,0.5078730583190918
1665946247250646300,4.277646240234375,0.5485469698905945,1.0675736665725708,0.4577385187149048
1665946247260728300,4.287728271484375,0.4690907895565033,1.097133994102478,0.39764511585235596
1665946247270810000,4.29781005859375,0.37671107053756714,1.1887823343276978,0.41679883003234863
1665946247280892200,4.30789208984375,0.3632919192314148,1.332450270652771,0.41032201051712036
1665946247290973200,4.31797314453125,0.37237995862960815,1.4311481714248657,0.4266833961009979
1665946247301055200,4.32805517578125,0.3526027798652649,1.5850780010223389,0.3921147882938385
1665946247311137300,4.33813720703125,0.34556806087493896,1.724034309387207,0.2699393332004547
1665946247321219300,4.34821923828125,0.3973958194255829,1.8652939796447754,0.13820022344589233
1665946247331301000,4.358301025390625,0.48448413610458374,1.99466872215271,0.028565598651766777
1665946247341383200,4.368383056640625,0.5323547124862671,1.9802205562591553,-0.028961343690752983
1665946247351464200,4.378464111328125,0.5810554027557373,1.7478110790252686,-0.06660193204879761
1665946247361546200,4.388546142578125,0.6274173259735107,1.37636137008667,-0.11522939056158066
1665946247371628300,4.398628173828125,0.6903536915779114,1.0356189012527466,-0.19253775477409363
1665946247381710300,4.40871044921875,0.7383009791374207,0.8819145560264587,-0.271451473236084
1665946247391792400,4.41879248046875,0.7524897456169128,0.916485071182251,-0.3141805827617645
1665946247401873400,4.428873291015625,0.7820526957511902,1.0478765964508057,-0.3092625141143799
1665946247411955500,4.43895556640625,0.8605166077613831,1.4089748859405518,-0.339216947555542
1665946247422037200,4.449037353515625,0.8894779682159424,1.8860256671905518,-0.5132902264595032
1665946247432119000,4.459119140625,0.766146719455719,2.208346128463745,-0.7987901568412781
1665946247442201000,4.469201171875,0.8588427901268005,2.4014580249786377,-0.9489692449569702
1665946247452283100,4.479283203125,1.0825084447860718,1.8975286483764648,-0.6075291037559509
1665946247462364200,4.4893642578125,1.132802963256836,0.6094667911529541,0.07570941001176834
1665946247472446200,4.4994462890625,1.0648620128631592,-0.5477126240730286,0.5853438973426819
1665946247482528300,4.5095283203125,0.8327504992485046,-0.950255274772644,1.0087127685546875
1665946247492610300,4.5196103515625,0.485472172498703,-0.4138381779193878,1.1683298349380493
1665946247502692000,4.529692138671875,-0.11981721222400665,0.7558804750442505,0.6824179887771606
1665946247512773400,4.5397734375,-0.8716233372688293,1.6063694953918457,0.09954869747161865
1665946247522855200,4.549855224609375,-1.2847474813461304,1.360987663269043,-0.03032568097114563
1665946247532937200,4.559937255859375,-1.2771029472351074,0.14108309149742126,0.5074387192726135
1665946247543019300,4.570019287109375,-1.0003114938735962,-1.3683726787567139,1.355817437171936
1665946247553101300,4.580101318359375,-0.7447921633720398,-2.2321786880493164,2.0157010555267334
1665946247563183400,4.590183349609375,-0.5061233639717102,-2.4911773204803467,2.3347830772399902
1665946247573264100,4.60026416015625,-0.24721431732177734,-1.9802021980285645,2.3068060874938965
1665946247583346200,4.61034619140625,-0.06467193365097046,-1.1876583099365234,1.9574790000915527
1665946247593428200,4.62042822265625,-0.06217016279697418,-0.6899105310440063,1.482986330986023
1665946247603510000,4.630510009765625,-0.060977865010499954,-0.6071402430534363,1.055073857307434
1665946247613592000,4.640592041015625,-0.03573242947459221,-0.3919413983821869,0.8401833772659302
1665946247623674000,4.650674072265625,-0.09572519361972809,-0.23871271312236786,0.8126068711280823
1665946247633755100,4.660755126953125,-0.21278497576713562,-0.21972383558750153,0.9417816400527954
1665946247643837200,4.670837158203125,-0.2917455732822418,-0.27520307898521423,1.138099193572998
1665946247653919200,4.680919189453125,-0.3834368586540222,-0.40340179204940796,1.3098390102386475
1665946247664001300,4.691001220703125,-0.5049995183944702,-0.6073786020278931,1.4720518589019775
1665946247674083300,4.701083251953125,-0.5314857363700867,-0.847151517868042,1.560333013534546
1665946247684165000,4.7111650390625,-0.48282790184020996,-0.9960315823554993,1.5243595838546753
1665946247694246400,4.721246337890625,-0.4043642580509186,-0.9398106336593628,1.4552191495895386
1665946247704328200,4.731328125,-0.35451334714889526,-0.9370936751365662,1.394006371498108
1665946247714410200,4.74141015625,-0.3210448622703552,-1.0426520109176636,1.332587718963623
1665946247724492300,4.7514921875,-0.3763275742530823,-1.1755666732788086,1.2839502096176147
1665946247734574300,4.76157421875,-0.3486970067024231,-1.2572450637817383,1.2305231094360352
1665946247744656400,4.771656494140625,-0.31330493092536926,-1.2606205940246582,1.1722382307052612
1665946247754737200,4.781737060546875,-0.343777596950531,-1.2492432594299316,1.1613537073135376
1665946247764819200,4.791819091796875,-0.4134994447231293,-1.2824259996414185,1.1478592157363892
1665946247774901200,4.8019013671875,-0.49575090408325195,-1.280285120010376,1.0527265071868896
1665946247784983000,4.811983154296875,-0.5829164385795593,-1.1697397232055664,0.9754099249839783
1665946247795065000,4.822065185546875,-0.6333726644515991,-1.0060412883758545,0.8841159343719482
1665946247805147100,4.832147216796875,-0.6148770451545715,-0.7829113006591797,0.8077144026756287
1665946247815228400,4.842228515625,-0.5681049823760986,-0.636657178401947,0.7590216994285583
1665946247825310500,4.852310546875,-0.546559751033783,-0.5841377377510071,0.7266043424606323
1665946247835392500,4.862392578125,-0.5277056097984314,-0.5748313069343567,0.7246226668357849
1665946247845474600,4.872474609375,-0.49613839387893677,-0.6243019700050354,0.7559675574302673
1665946247855556600,4.882556640625,-0.4674404263496399,-0.6335638761520386,0.8144569993019104
1665946247865637600,4.8926376953125,-0.44228288531303406,-0.616418182849884,0.8713961839675903
1665946247875719400,4.902719482421875,-0.4326736629009247,-0.6065876483917236,0.9258894920349121
1665946247885801500,4.912801513671875,-0.4208228588104248,-0.6183859705924988,0.950843870639801
1665946247895883500,4.922883544921875,-0.4100399911403656,-0.7105281949043274,0.9109907150268555
1665946247905965600,4.932965576171875,-0.41140004992485046,-0.7993105053901672,0.8379122018814087
1665946247916047600,4.943047607421875,-0.4142288863658905,-0.8532842397689819,0.772789716720581
1665946247926128600,4.953128662109375,-0.4109039008617401,-0.8613528609275818,0.7346625328063965
1665946247936210700,4.963210693359375,-0.4067653715610504,-0.8001704216003418,0.7130755186080933
1665946247946292700,4.973292724609375,-0.4161599278450012,-0.6879531145095825,0.6919592618942261
1665946247956374500,4.98337451171875,-0.4152102470397949,-0.5557106137275696,0.6509985327720642
1665946247966456300,4.993456298828125,-0.40156713128089905,-0.4556460976600647,0.5953640341758728
1665946247976538400,5.003538330078125,-0.39489325881004333,-0.4815264046192169,0.5196927189826965
1665946247986619400,5.013619384765625,-0.34478455781936646,-0.490110844373703,0.439262330532074
1665946247996701400,5.023701416015625,-0.33751970529556274,-0.5614012479782104,0.3749818801879883
1665946248006783500,5.033783447265625,-0.28551802039146423,-0.650865375995636,0.32318922877311707
1665946248016865500,5.043865478515625,-0.22622887790203094,-0.7000731229782104,0.3091096580028534
1665946248026947600,5.053947509765625,-0.1676345318555832,-0.7366188764572144,0.30414658784866333
1665946248037029600,5.064029541015625,-0.1257086545228958,-0.7841845750808716,0.2757490277290344
1665946248047110700,5.074110595703125,-0.0985926166176796,-0.8639387488365173,0.21587955951690674
1665946248057192400,5.0841923828125,-0.08700866997241974,-0.9723163843154907,0.13473623991012573
1665946248067274500,5.0942744140625,-0.08014250546693802,-1.0802888870239258,0.03129880130290985
1665946248077356500,5.1043564453125,-0.08792213350534439,-1.2163420915603638,-0.07228458672761917
1665946248087438600,5.1144384765625,-0.07702607661485672,-1.3492265939712524,-0.18230828642845154
1665946248097520600,5.124520751953125,0.05380304530262947,-1.3685153722763062,-0.36261096596717834
1665946248107601700,5.1346015625,0.24220943450927734,-1.3029388189315796,-0.5280424952507019
1665946248117683700,5.14468359375,0.4089627265930176,-1.2950888872146606,-0.5150430798530579
1665946248127765500,5.154765625,0.5732773542404175,-1.2360279560089111,-0.3978283405303955
1665946248137847300,5.164847412109375,0.6470011472702026,-1.0884370803833008,-0.4214537739753723
1665946248147929300,5.174929443359375,0.6564982533454895,-0.8169124126434326,-0.653110682964325
1665946248158011400,5.185011474609375,0.7084562182426453,-0.3689418137073517,-0.956085741519928
1665946248168093400,5.195093505859375,0.6725315451622009,-0.12489905953407288,-1.182028889656067
1665946248178174500,5.205174560546875,0.6583925485610962,-0.17120184004306793,-1.349605917930603
1665946248188256500,5.215256591796875,0.6236513257026672,-0.3239940404891968,-1.5404824018478394
1665946248198338600,5.225338623046875,0.5356746315956116,-0.380759060382843,-1.808767557144165
1665946248208420600,5.235420654296875,0.4471418261528015,-0.35653334856033325,-2.0622241497039795
1665946248218502400,5.24550244140625,0.3706994950771332,-0.34960994124412537,-2.2032222747802734
1665946248228584400,5.25558447265625,0.3176006078720093,-0.3544102907180786,-2.3033387660980225
1665946248238665500,5.26566552734375,0.2784382700920105,-0.45303112268447876,-2.362800121307373
1665946248248747500,5.27574755859375,0.25655004382133484,-0.7145367860794067,-2.3487255573272705
1665946248258829600,5.28582958984375,0.24928146600723267,-1.0396480560302734,-2.228938579559326
1665946248268911600,5.29591162109375,0.2573859989643097,-1.4158424139022827,-2.1160635948181152
1665946248278993700,5.30599365234375,0.2685140073299408,-1.8000319004058838,-1.988300085067749
1665946248289075700,5.31607568359375,0.21307046711444855,-2.0624094009399414,-1.8554458618164062
1665946248299156500,5.326156494140625,0.1650259643793106,-2.066741704940796,-1.756676435470581
1665946248309238500,5.336238525390625,0.13201075792312622,-1.8408533334732056,-1.6950591802597046
1665946248319320300,5.3463203125,0.14867043495178223,-1.5255353450775146,-1.6518977880477905
1665946248329402400,5.35640234375,0.21912036836147308,-1.2360543012619019,-1.5356236696243286
1665946248339484400,5.366484375,0.2836913764476776,-0.974685549736023,-1.3436890840530396
1665946248349566500,5.37656640625,0.3182789087295532,-0.9264389276504517,-1.2033045291900635
1665946248359648500,5.3866484375,0.40042439103126526,-0.9512017965316772,-1.0924235582351685
1665946248369729500,5.3967294921875,0.47193291783332825,-0.9638320803642273,-1.02892005443573
1665946248379811600,5.4068115234375,0.5037025809288025,-0.9774773120880127,-0.9617473483085632
1665946248389893600,5.4168935546875,0.5086648464202881,-0.9327561855316162,-0.8586896657943726
1665946248399975400,5.426975341796875,0.502766489982605,-0.8132833242416382,-0.7480502724647522
1665946248410057500,5.437057373046875,0.4655083119869232,-0.7322047352790833,-0.6620250940322876
1665946248420139500,5.447139404296875,0.40371230244636536,-0.8039646744728088,-0.6121068000793457
1665946248430220500,5.457220458984375,0.3379652500152588,-0.8746662735939026,-0.5883828401565552
1665946248440302600,5.467302490234375,0.29507026076316833,-0.9505053758621216,-0.5783216953277588
1665946248450384600,5.477384521484375,0.2797562777996063,-1.0150734186172485,-0.5648641586303711
1665946248460466700,5.487466796875,0.29401591420173645,-1.0337823629379272,-0.5576861500740051
1665946248470548700,5.497548828125,0.3144434094429016,-1.0647670030593872,-0.5525957942008972
1665946248480630500,5.507630615234375,0.31050166487693787,-1.0744779109954834,-0.567695677280426
1665946248490712600,5.517712646484375,0.3082292079925537,-1.0457173585891724,-0.5942681431770325
1665946248500793300,5.52779345703125,0.32986578345298767,-0.9746195077896118,-0.6372190713882446
1665946248510875400,5.53787548828125,0.3586990237236023,-0.9202480912208557,-0.6839780807495117
1665946248520957400,5.54795751953125,0.4156922698020935,-0.8575026988983154,-0.730955183506012
1665946248531039500,5.55803955078125,0.4906504154205322,-0.7365097403526306,-0.7734254002571106
1665946248541121500,5.56812158203125,0.5698970556259155,-0.6359889507293701,-0.8201326727867126
1665946248551203600,5.57820361328125,0.6240068674087524,-0.5882656574249268,-0.872541606426239
1665946248561285400,5.588285400390625,0.6488357782363892,-0.6204931139945984,-0.9620749354362488
1665946248571366700,5.59836669921875,0.657063901424408,-0.7185160517692566,-1.1592998504638672
1665946248581448400,5.608448486328125,0.656988799571991,-0.8743773102760315,-1.363156795501709
1665946248591530500,5.618530517578125,0.5411474108695984,-0.8042551875114441,-1.3406469821929932
1665946248601612500,5.628612548828125,0.3351162075996399,-0.9336243867874146,-0.9634783864021301
1665946248611694600,5.638694580078125,0.21734324097633362,-1.6737346649169922,-0.4304041266441345
1665946248621776600,5.648776611328125,0.11046738922595978,-2.122722864151001,-0.22593140602111816
1665946248631858700,5.658858642578125,-0.18604789674282074,-1.4774141311645508,-0.3407493233680725
1665946248641939700,5.668939697265625,-0.5253138542175293,-0.7293825745582581,-0.21530671417713165
1665946248652021800,5.679021728515625,-0.7794086933135986,-0.3551967144012451,0.0067870658822357655
1665946248662103300,5.689103271484375,-0.9723853468894958,-0.08015662431716919,0.05499347671866417
1665946248672185300,5.699185302734375,-1.2442653179168701,-0.04669160395860672,0.21816055476665497
1665946248682267400,5.709267333984375,-1.660071849822998,-0.15561462938785553,0.7756105065345764
1665946248692349400,5.719349365234375,-1.901347041130066,-0.1458461582660675,1.2150530815124512
1665946248702431500,5.729431396484375,-2.075092315673828,-0.004898352082818747,1.3440572023391724
1665946248712512500,5.739512451171875,-2.294381618499756,-0.05306428298354149,1.6236275434494019
1665946248722594600,5.749594482421875,-2.297898292541504,-0.4628552496433258,2.1829586029052734
1665946248732676600,5.759676513671875,-2.195948600769043,-1.123167634010315,2.7777292728424072
1665946248742758400,5.76975830078125,-1.7875562906265259,-1.6741951704025269,3.0537681579589844
1665946248752840400,5.77984033203125,-1.2948664426803589,-1.9339969158172607,2.9922475814819336
1665946248762922500,5.789922607421875,-0.7351797223091125,-2.164055347442627,2.8322134017944336
1665946248773004500,5.800004638671875,-0.287883996963501,-2.5539209842681885,2.628366231918335
1665946248783085600,5.81008544921875,-0.014268950559198856,-2.88863468170166,2.4162404537200928
1665946248793167600,5.820167724609375,0.0607946403324604,-2.654771327972412,2.264235258102417
1665946248803249700,5.830249755859375,-0.13669553399085999,-2.013242244720459,2.0578269958496094
1665946248813331700,5.840331787109375,-0.36976340413093567,-1.429656982421875,1.6096750497817993
1665946248823413500,5.85041357421875,-0.55103600025177,-1.1322463750839233,1.0961605310440063
1665946248833495600,5.86049560546875,-0.7823272943496704,-1.236863374710083,0.6148176193237305
1665946248843577600,5.87057763671875,-0.8750321865081787,-1.342379093170166,0.17112088203430176
1665946248853658600,5.88065869140625,-0.6944078207015991,-1.5917381048202515,-0.20340745151042938
1665946248863740700,5.89074072265625,-0.4745215177536011,-1.770288348197937,-0.5614817142486572
1665946248873822700,5.90082275390625,-0.182122141122818,-1.9875829219818115,-0.7622417211532593
1665946248883904800,5.91090478515625,0.13328801095485687,-2.001241683959961,-0.8267170786857605
1665946248893986800,5.92098681640625,0.36715617775917053,-1.7601734399795532,-1.0108156204223633
1665946248904068600,5.931068603515625,0.39936017990112305,-1.5146187543869019,-1.1341584920883179
1665946248914150700,5.941150634765625,0.2645014226436615,-1.160607933998108,-1.1377575397491455
1665946248924231700,5.951231689453125,0.1596764773130417,-1.1197510957717896,-1.1157361268997192
1665946248934313700,5.961313720703125,0.10993289202451706,-1.376949667930603,-1.0798699855804443
1665946248944395500,5.9713955078125,0.08521103113889694,-1.7681522369384766,-0.9201972484588623
1665946248954477600,5.9814775390625,0.08580491691827774,-2.1490275859832764,-0.5827624797821045
1665946248964559600,5.9915595703125,0.10670647025108337,-2.336815118789673,-0.20567460358142853
1665946248974641700,6.0016416015625,0.18198232352733612,-2.1044952869415283,0.03729064762592316
1665946248984723500,6.011723388671875,0.2139466404914856,-1.6999372243881226,0.19721719622612
1665946248994805500,6.021805419921875,0.0798942968249321,-1.2672619819641113,0.2895908057689667
1665946249004886500,6.031886474609375,-0.09234137833118439,-0.8672288656234741,0.250899076461792
1665946249014968600,6.041968505859375,-0.18700557947158813,-0.7038585543632507,0.18658559024333954
1665946249025050600,6.052050537109375,-0.18429447710514069,-0.8596923351287842,0.14136672019958496
1665946249035132700,6.062132568359375,-0.12068354338407516,-1.2354774475097656,0.05409172922372818
1665946249045214700,6.072214599609375,-0.06389109790325165,-1.6203111410140991,-0.059240952134132385
1665946249055296800,6.082296875,-0.005163869354873896,-1.8402376174926758,-0.1372968703508377
1665946249065378600,6.092378662109375,0.029507026076316833,-1.9235544204711914,-0.1620786488056183
1665946249075459800,6.1024599609375,0.01830284111201763,-1.931670904159546,-0.1374228447675705
1665946249085541600,6.112541748046875,-0.015507587231695652,-1.9314152002334595,-0.17014935612678528
1665946249095623700,6.122623779296875,-0.04015541076660156,-2.0151991844177246,-0.30727311968803406
1665946249105705700,6.132705810546875,-0.06662403047084808,-1.9238110780715942,-0.5155965089797974
1665946249115787800,6.142787841796875,-0.10531949996948242,-1.5052484273910522,-0.7377853393554688
1665946249125869800,6.152869873046875,-0.15512433648109436,-0.8133760094642639,-0.8989255428314209
1665946249135952000,6.162951904296875,-0.2579207718372345,-0.25954848527908325,-1.1483323574066162
1665946249146033700,6.17303369140625,-0.3179047405719757,0.5566949248313904,-1.3162604570388794
1665946249156114700,6.18311474609375,-0.3877202868461609,1.6733537912368774,-0.8852773308753967
1665946249166196500,6.193196533203125,-0.4308624565601349,0.6644278168678284,0.40728333592414856
1665946249176278500,6.203278564453125,-0.18355917930603027,-1.436510682106018,0.2641213834285736
1665946249186360600,6.213360595703125,0.4409717917442322,-3.4919803142547607,-1.023695468902588
1665946289505093400,46.53209326171875,0.3319441080093384,1.4609500169754028,0.803957998752594
1665946289515174100,46.542174072265624,0.41450610756874084,0.8747938275337219,0.7413516044616699
1665946289525256200,46.552256103515624,0.6169257760047913,0.1331958770751953,0.6117467284202576
1665946289535337200,46.56233715820313,0.9330600500106812,-0.769066572189331,0.44459742307662964
1665946289545419300,46.57241918945312,1.2250548601150513,-1.16940438747406,0.046014364808797836
1665946289555501300,46.58250122070312,1.6097053289413452,-1.2372812032699585,-0.5483121275901794
1665946289565582300,46.592582275390626,1.6408507823944092,-1.5663610696792603,-0.9566125273704529
1665946289575664400,46.60266430664063,1.0690604448318481,-1.7596384286880493,-1.1318378448486328
1665946289585746200,46.61274609375,0.45688098669052124,-1.4600436687469482,-1.498831868171692
1665946289595827500,46.622827392578124,0.3168807327747345,-1.4584599733352661,-1.7690551280975342
1665946289605909200,46.6329091796875,0.2650473713874817,-1.2951740026474,-2.054518461227417
1665946289615991300,46.6429912109375,0.0948823019862175,-1.1255466938018799,-2.254014492034912
1665946289626072000,46.65307202148438,-0.0561857745051384,-0.980516791343689,-2.4156036376953125
1665946289636154000,46.66315405273438,-0.10108640044927597,-0.8863311409950256,-2.51114821434021
1665946289646235100,46.673235107421874,-0.038716770708560944,-0.8425576090812683,-2.5214507579803467
1665946289656317200,46.683317138671875,0.10553814470767975,-0.9481258392333984,-2.4365246295928955
1665946289666399200,46.693399169921875,0.3246971368789673,-1.1697956323623657,-2.2713117599487305
1665946289676480300,46.70348022460937,0.5768606662750244,-1.4534566402435303,-2.0549962520599365
1665946289686562300,46.71356225585937,0.8003627061843872,-1.7295273542404175,-1.8339712619781494
1665946289696644400,46.72364428710937,0.9555264711380005,-2.00772762298584,-1.6495089530944824
1665946289706725400,46.73372534179688,1.0457767248153687,-2.290858507156372,-1.5232181549072266
1665946289716807200,46.74380712890625,1.1915863752365112,-2.6746256351470947,-1.4511170387268066
1665946289726889200,46.75388916015625,1.5806596279144287,-3.3290598392486572,-1.3385710716247559
1665946289736970200,46.76397021484375,2.231856107711792,-4.442144870758057,-1.0398073196411133
1665946289747052300,46.77405224609375,2.9268171787261963,-4.941524028778076,-0.5557742714881897
1665946289757133300,46.78413330078125,3.2002530097961426,-3.411893844604492,-0.05684730410575867
1665946289767215400,46.79421533203125,3.052248477935791,-1.4616535902023315,0.346577912569046
1665946289777297200,46.80429711914063,2.6441471576690674,0.3262939453125,0.6516451239585876
1665946289787378400,46.81437841796875,2.3058574199676514,1.7230247259140015,0.6823521852493286
1665946289797460200,46.824460205078125,2.2239365577697754,1.7696833610534668,0.6497905254364014
1665946289807542300,46.834542236328126,2.3590774536132812,1.3452755212783813,0.405486524105072
1665946289817623000,46.844623046875,2.4704699516296387,0.8362195491790771,0.12990500032901764
1665946289827705000,46.854705078125,2.5614705085754395,0.523087739944458,-0.016535833477973938
1665946289837787100,46.864787109375,2.603933334350586,0.59041428565979,0.02159077860414982
1665946289847868200,46.8748681640625,2.5533692836761475,0.8459773659706116,0.06734921038150787
1665946289857950200,46.8849501953125,2.461747646331787,1.0750190019607544,-0.01774224452674389
1665946289868031200,46.89503125,2.3613882064819336,1.2381584644317627,-0.2990676760673523
1665946289878113300,46.90511328125,2.226914405822754,1.2724535465240479,-0.6870156526565552
1665946289888195300,46.9151953125,2.0975184440612793,1.2964632511138916,-0.9764003157615662
1665946289898276400,46.9252763671875,2.1255364418029785,1.089171051979065,-1.0134813785552979
1665946289908358400,46.9353583984375,2.2638044357299805,0.6681820750236511,-0.9263965487480164
1665946289918440400,46.9454404296875,2.4513607025146484,0.40834566950798035,-0.8318786025047302
1665946289928521200,46.955521240234376,2.6140270233154297,0.45159754157066345,-0.8092438578605652
1665946289938603300,46.965603271484376,2.6696975231170654,0.5252786874771118,-0.7894490957260132
1665946289948685000,46.97568505859375,2.674715995788574,0.4588107168674469,-0.719224750995636
1665946289958766300,46.98576635742187,2.6343860626220703,0.40027791261672974,-0.6216779351234436
1665946289968848100,46.99584814453125,2.549483060836792,0.3778839111328125,-0.5477850437164307
1665946289978929200,47.00592919921875,2.3789827823638916,0.4132845103740692,-0.5749304294586182
1665946289989011000,47.016010986328126,2.2103168964385986,0.4992668032646179,-0.693827748298645
1665946289999093000,47.02609301757813,2.083888530731201,0.7186697125434875,-0.8109365701675415
1665946290009174000,47.036174072265624,1.9838323593139648,0.9459756016731262,-0.9033730030059814
1665946290019256000,47.046256103515624,1.8232450485229492,1.0979517698287964,-0.9480994343757629
1665946290029338000,47.056338134765625,1.603203296661377,1.1161541938781738,-0.9741643667221069
1665946290039419100,47.06641918945313,1.4504587650299072,1.063291072845459,-1.0132148265838623
1665946290049501200,47.07650122070312,1.408950686454773,0.9288948774337769,-1.0380014181137085
1665946290059583200,47.08658325195312,1.4172781705856323,0.6551956534385681,-0.9896194934844971
1665946290069664000,47.0966640625,1.2318779230117798,0.46525371074676514,-0.7844244837760925
1665946290079746000,47.10674609375,0.9639047980308533,0.5112167000770569,-0.39812126755714417
1665946290089828000,47.116828125,1.0145649909973145,0.5805214643478394,-0.10482361912727356
1665946290099909000,47.1269091796875,1.1491031646728516,0.7646172642707825,-0.039018772542476654
1665946290109991200,47.1369912109375,1.2732746601104736,0.8642881512641907,-0.0666850209236145
1665946290120073000,47.14707299804687,1.3249969482421875,0.9463286995887756,-0.059541624039411545
1665946290130154200,47.157154296875,1.3094395399093628,1.2544891834259033,-0.029146699234843254
1665946290140236000,47.16723608398438,1.1927430629730225,1.2522087097167969,0.022456573322415352
1665946290150317300,47.1773173828125,1.084828495979309,1.0072344541549683,0.14781822264194489
1665946290160399000,47.187399169921875,0.7489644885063171,1.175317645072937,0.6086814403533936
1665946290170481200,47.197481201171875,0.608116865158081,1.219243049621582,0.8963185548782349
1665946290180562000,47.20756201171875,0.768017053604126,1.1541324853897095,1.0195059776306152
1665946290190644000,47.21764404296875,0.8057377934455872,0.9630246162414551,1.0375022888183594
1665946290200726000,47.22772607421875,0.6480586528778076,0.7390871047973633,0.9722628593444824
1665946290210807000,47.23780712890625,0.4342089593410492,0.43861329555511475,0.843641996383667
1665946290220889000,47.24788916015625,0.25973835587501526,0.33106687664985657,0.7056106328964233
1665946290230971100,47.25797119140625,0.1598770171403885,0.30370262265205383,0.6188720464706421
1665946290241052200,47.26805224609375,0.10700953751802444,0.16697381436824799,0.5791187286376953
1665946290251134200,47.27813427734375,0.1653767079114914,0.09492358565330505,0.566364049911499
1665946290261216300,47.28821630859375,0.2547936737537384,0.07062676548957825,0.5328189134597778
1665946290271297300,47.29829736328125,0.29896432161331177,0.03868135064840317,0.43726813793182373
1665946290281379300,47.30837939453125,0.299019992351532,0.0642375722527504,0.3060872256755829
1665946290291461000,47.31846118164062,0.25977644324302673,0.11828695982694626,0.1963852196931839
1665946290301542100,47.328542236328126,0.16604062914848328,0.14848187565803528,0.16178171336650848
1665946290311624000,47.3386240234375,0.05660761892795563,0.1296629160642624,0.1629399210214615
1665946290321706000,47.3487060546875,-0.004456799943000078,0.0619877353310585,0.16048048436641693
1665946290331787000,47.358787109375,0.003403519745916128,-0.0031135017052292824,0.10586411505937576
1665946290341869000,47.368869140625,0.07321376353502274,0.020601680502295494,-0.011095793917775154
1665946290351951000,47.378951171875,0.1648765653371811,0.0446644052863121,-0.13065974414348602
1665946290362032000,47.3890322265625,0.25352734327316284,0.08631598204374313,-0.21140332520008087
1665946290372114200,47.3991142578125,0.3547402322292328,0.19137395918369293,-0.26028192043304443
1665946290382196200,47.4091962890625,0.4234732389450073,0.22979991137981415,-0.3197614848613739
1665946290392277000,47.419277099609374,0.48866182565689087,0.2702895402908325,-0.3591834604740143
1665946290402359000,47.429359130859375,0.5358570218086243,0.28144872188568115,-0.3302103877067566
1665946290412440000,47.43944018554687,0.5458590984344482,0.19293271005153656,-0.22779108583927155
1665946290422522000,47.44952221679687,0.5511544942855835,0.05362967401742935,-0.06443385034799576
1665946290432604200,47.45960424804687,0.511441707611084,-0.216755211353302,0.16836237907409668
1665946290442685200,47.469685302734376,0.46612775325775146,-0.34368467330932617,0.3823215365409851
1665946290452767200,47.47976733398438,0.38911178708076477,-0.38553065061569214,0.5789597630500793
1665946290462849000,47.48984912109375,0.3131829500198364,-0.3594614863395691,0.7634412050247192
1665946290472930300,47.499930419921874,0.2636508047580719,-0.35999786853790283,0.9420226812362671
1665946290483012000,47.51001220703125,0.23907117545604706,-0.3746260702610016,1.1010408401489258
1665946290493094100,47.52009423828125,0.2446904331445694,-0.4496912658214569,1.2603551149368286
1665946290503175000,47.5301748046875,0.26017433404922485,-0.6080310940742493,1.3925775289535522
1665946290513257000,47.54025708007813,0.31911593675613403,-0.8085090517997742,1.5023741722106934
1665946290523339000,47.55033911132813,0.3700414299964905,-0.8801606297492981,1.5031054019927979
1665946290533420000,47.560419921875,0.42776304483413696,-0.9552830457687378,1.4014781713485718
1665946290543502000,47.570502197265625,0.41162216663360596,-1.0292975902557373,1.2549067735671997
1665946290553584000,47.580584228515626,0.320197194814682,-1.0148886442184448,1.0953069925308228
1665946290563665200,47.5906650390625,0.197423055768013,-0.9396684169769287,0.9030632972717285
1665946290573747200,47.60074731445312,0.10496769100427628,-0.8934308886528015,0.6564868092536926
1665946290583829200,47.610829345703124,0.02803056873381138,-0.8233258128166199,0.4065837264060974
1665946290593910300,47.62091015625,-0.0623997263610363,-0.7701494097709656,0.21477222442626953
1665946290603992300,47.63099243164063,-0.1218516007065773,-0.7512955665588379,0.14865338802337646
1665946290614074000,47.64107421875,-0.10821462422609329,-0.8638958930969238,0.2195291668176651
1665946290624155100,47.65115502929687,-0.012091550044715405,-1.0494500398635864,0.3632088303565979
1665946290634237000,47.66123681640625,0.07271761447191238,-1.1510157585144043,0.47235235571861267
1665946290644319000,47.671319091796875,0.08417053520679474,-1.1155680418014526,0.48101428151130676
1665946290654400000,47.68139990234375,0.058700066059827805,-0.888092577457428,0.13098251819610596
1665946290664482000,47.69148193359375,-0.08976450562477112,-0.5219886302947998,-0.2386826127767563
1665946290674564000,47.70156420898437,-0.2489887773990631,-0.3256470859050751,-0.18055459856987
1665946290684646100,47.71164624023437,-0.2687382400035858,-0.33361685276031494,-0.03602990508079529
1665946290694727200,47.72172705078125,-0.18548783659934998,-0.44788455963134766,0.14510659873485565
1665946290704809200,47.73180932617188,-0.14162024855613708,-0.365551620721817,0.2959997057914734
1665946290714891300,47.74189135742188,-0.06314700841903687,-0.28110089898109436,0.29907432198524475
1665946290724972000,47.75197192382812,0.023784957826137543,-0.22782383859157562,0.19037100672721863
1665946290735054000,47.76205419921875,0.012762666679918766,-0.09694039821624756,-0.008258729241788387
1665946290745136000,47.77213623046875,-0.04109843447804451,0.07726921886205673,-0.21614401042461395
1665946290755217200,47.78221704101563,-0.0642026886343956,0.19955359399318695,-0.30151990056037903
1665946290765299200,47.79229931640625,-0.050761714577674866,0.12301114201545715,-0.2345094382762909
1665946290775381000,47.80238110351563,-0.04749534651637077,-0.005059739574790001,-0.09498563408851624
1665946290785462000,47.8124619140625,-0.08595885336399078,-0.06210597977042198,-0.011097125709056854
1665946290795544000,47.8225439453125,-0.15581277012825012,-0.012528841383755207,-0.011452658101916313
1665946290805626000,47.832626220703126,-0.21600739657878876,0.05271727219223976,-0.06912048161029816
1665946290815707100,47.84270703125,-0.2423734962940216,0.09911193698644638,-0.16285043954849243
1665946290825789200,47.8527890625,-0.2586424648761749,0.14150653779506683,-0.2671304941177368
1665946290835871200,47.862871337890624,-0.25725921988487244,0.2001035362482071,-0.3309262692928314
1665946290845952000,47.872951904296876,-0.265288382768631,0.2242775708436966,-0.3576715886592865
1665946290856034000,47.88303393554688,-0.2891758680343628,0.23869965970516205,-0.3706054985523224
1665946290866116000,47.8931162109375,-0.28906482458114624,0.25734952092170715,-0.3685082495212555
1665946290876198100,47.9031982421875,-0.2901037335395813,0.2868006229400635,-0.3794248104095459
1665946290886279200,47.913279052734374,-0.2810487151145935,0.3235871195793152,-0.4145471155643463
1665946290896361200,47.923361328125,-0.2790750563144684,0.3635888695716858,-0.45947250723838806
1665946290906443000,47.933443115234375,-0.29807668924331665,0.4199850261211395,-0.457681268453598
1665946290916524300,47.94352416992187,-0.30644088983535767,0.4300219416618347,-0.42338669300079346
1665946290926606000,47.95360620117187,-0.30635061860084534,0.4097462296485901,-0.3604748249053955
1665946290936688000,47.96368823242187,-0.2912278473377228,0.4148919880390167,-0.2592097222805023
1665946290946769000,47.973768798828125,-0.27465394139289856,0.38731762766838074,-0.13614772260189056
1665946290956851000,47.983850830078126,-0.2412043660879135,0.34824877977371216,-0.020356670022010803
1665946290966933000,47.99393310546875,-0.19698096811771393,0.2784169912338257,0.07407236099243164
1665946290977014800,48.00401489257813,-0.16916824877262115,0.20239704847335815,0.11590902507305145
1665946290987096800,48.01409692382813,-0.15871880948543549,0.17792685329914093,0.09714625775814056
1665946290997179000,48.02417895507813,-0.16226693987846375,0.21837468445301056,0.030463367700576782
1665946291007260000,48.034260009765624,-0.1624182015657425,0.28400081396102905,-0.0602303184568882
1665946291017342000,48.044342041015625,-0.16445046663284302,0.33861854672431946,-0.12921151518821716
1665946291027423700,48.054423828125,-0.17027506232261658,0.37753477692604065,-0.15951988101005554
1665946291037505500,48.064505615234374,-0.1725749671459198,0.4127236604690552,-0.16767741739749908
1665946291047586600,48.07458666992188,-0.17001673579216003,0.4371027648448944,-0.16205547749996185
1665946291057668600,48.08466870117188,-0.17055869102478027,0.4574242830276489,-0.15284840762615204
1665946291067750700,48.09475073242187,-0.15689720213413239,0.4756573438644409,-0.13478924334049225
1665946291077831700,48.104831787109376,-0.1491953432559967,0.447629451751709,-0.1118551641702652
1665946291087913700,48.114913818359376,-0.15433843433856964,0.40308326482772827,-0.07679464668035507
1665946291097995800,48.12499584960938,-0.15130403637886047,0.34900325536727905,-0.03195180743932724
1665946291108076800,48.135076904296874,-0.13253992795944214,0.2683265209197998,0.013188772834837437
1665946291118158800,48.145158935546874,-0.1196688786149025,0.2158513367176056,0.05886731296777725
1665946291128241000,48.155240966796875,-0.11734260618686676,0.18117006123065948,0.10020862519741058
1665946291138323000,48.165322998046875,-0.12057168781757355,0.1422298401594162,0.1343841701745987
1665946291148403700,48.17540380859375,-0.1099611222743988,0.09946773201227188,0.12739364802837372
1665946291158485800,48.18548583984375,-0.09665729850530624,0.07650543004274368,0.0807742103934288
1665946291168567600,48.19556762695313,-0.08660227060317993,0.06563626974821091,0.013786918483674526
1665946291178648800,48.20564892578125,-0.07147205621004105,0.07122571021318436,-0.04482446238398552
1665946291188730600,48.215730712890625,-0.05499108135700226,0.07295383512973785,-0.10181770473718643
1665946291198812700,48.225812744140626,-0.042640138417482376,0.06160290911793709,-0.14424638450145721
1665946291208894700,48.235894775390626,-0.04982028529047966,0.0574750117957592,-0.16068395972251892
1665946291218975700,48.24597583007812,-0.06143433228135109,0.06102340668439865,-0.16954535245895386
1665946291229057800,48.256057861328124,-0.07243558764457703,0.04805514216423035,-0.17940331995487213
1665946291239139800,48.266139892578124,-0.06989892572164536,0.05507203936576843,-0.18718959391117096
1665946291249220900,48.27622094726563,-0.079276442527771,0.08206610381603241,-0.19348478317260742
1665946291259303000,48.28630297851562,-0.08604593575000763,0.10852807760238647,-0.1943971812725067
1665946291269384700,48.296384765625,-0.08186264336109161,0.13054150342941284,-0.16371382772922516
1665946291279466800,48.306466796875,-0.08997729420661926,0.1407826840877533,-0.10528088361024857
1665946291289547800,48.3165478515625,-0.09363488107919693,0.12954413890838623,-0.04262122884392738
1665946291299629600,48.326629638671875,-0.07361216843128204,0.1236329898238182,0.013556554913520813
1665946291309711600,48.336711669921876,-0.05807448923587799,0.12619788944721222,0.027065439149737358
1665946291319792600,48.34679272460937,-0.04872146621346474,0.13432691991329193,0.017560884356498718
1665946291329874700,48.35687475585937,-0.04242894798517227,0.1542324423789978,0.009184177033603191
1665946291339956700,48.36695678710937,-0.03940492868423462,0.14723579585552216,0.04553978890180588
1665946291350038800,48.377038818359374,-0.05457216501235962,0.08897434920072556,0.11222560703754425
1665946291360119800,48.38711987304688,-0.04971269518136978,0.01919633150100708,0.11260990053415298
1665946291370201900,48.39720190429688,-0.050450656563043594,0.00743288267403841,0.0797203928232193
1665946291380284000,48.40728393554687,-0.04819655790925026,0.0211244598031044,0.029768282547593117
1665946291390364700,48.41736474609375,-0.07439513504505157,0.03712845966219902,-0.028190892189741135
1665946291400446700,48.42744677734375,-0.11769574135541916,0.04019082710146904,-0.08446268737316132
1665946291410528800,48.43752880859375,-0.14082156121730804,0.013684386387467384,-0.11990723013877869
1665946291420610600,48.447610595703125,-0.1452013999223709,-0.022954318672418594,-0.1389530897140503
1665946291430691800,48.45769189453125,-0.13056306540966034,-0.05384645238518715,-0.15845994651317596
